"","subject","trial","Timebin","ps.adj","time.adj","img","categ","cond","rep","answer","trialdur","acc","rt","resp","group","block","ITI"
"1",54,2,0,250.572682709447,0,"beaches29.jpg","beaches","X",0,"yes",1.002554,1,1.44281578063965,"j",1,1,3.5
"2",54,2,1,75.7999554367202,0.01,"beaches29.jpg","beaches","X",0,"yes",1.002554,1,1.44281578063965,"j",1,1,3.5
"3",54,2,2,-98.9727718360071,0.02,"beaches29.jpg","beaches","X",0,"yes",1.002554,1,1.44281578063965,"j",1,1,3.5
"4",54,2,3,-181.007317290553,0.03,"beaches29.jpg","beaches","X",0,"yes",1.002554,1,1.44281578063965,"j",1,1,3.5
"5",54,2,4,-49.2750445632798,0.04,"beaches29.jpg","beaches","X",0,"yes",1.002554,1,1.44281578063965,"j",1,1,3.5
"6",54,2,5,92.7249554367202,0.05,"beaches29.jpg","beaches","X",0,"yes",1.002554,1,1.44281578063965,"j",1,1,3.5
"7",54,2,6,234.72495543672,0.06,"beaches29.jpg","beaches","X",0,"yes",1.002554,1,1.44281578063965,"j",1,1,3.5
"8",54,2,7,376.72495543672,0.07,"beaches29.jpg","beaches","X",0,"yes",1.002554,1,1.44281578063965,"j",1,1,3.5
"9",54,2,8,518.72495543672,0.08,"beaches29.jpg","beaches","X",0,"yes",1.002554,1,1.44281578063965,"j",1,1,3.5
"10",54,2,9,660.72495543672,0.09,"beaches29.jpg","beaches","X",0,"yes",1.002554,1,1.44281578063965,"j",1,1,3.5
"11",54,2,10,802.72495543672,0.1,"beaches29.jpg","beaches","X",0,"yes",1.002554,1,1.44281578063965,"j",1,1,3.5
"12",54,2,11,944.72495543672,0.11,"beaches29.jpg","beaches","X",0,"yes",1.002554,1,1.44281578063965,"j",1,1,3.5
"13",54,2,12,1086.72495543672,0.12,"beaches29.jpg","beaches","X",0,"yes",1.002554,1,1.44281578063965,"j",1,1,3.5
"14",54,2,13,1200.00495543672,0.13,"beaches29.jpg","beaches","X",0,"yes",1.002554,1,1.44281578063965,"j",1,1,3.5
"15",54,2,14,1193.82495543672,0.14,"beaches29.jpg","beaches","X",0,"yes",1.002554,1,1.44281578063965,"j",1,1,3.5
"16",54,2,15,1190.32495543672,0.15,"beaches29.jpg","beaches","X",0,"yes",1.002554,1,1.44281578063965,"j",1,1,3.5
"17",54,2,16,1184.82495543672,0.16,"beaches29.jpg","beaches","X",0,"yes",1.002554,1,1.44281578063965,"j",1,1,3.5
"18",54,2,17,1182.82495543672,0.17,"beaches29.jpg","beaches","X",0,"yes",1.002554,1,1.44281578063965,"j",1,1,3.5
"19",54,2,18,1198.72495543672,0.18,"beaches29.jpg","beaches","X",0,"yes",1.002554,1,1.44281578063965,"j",1,1,3.5
"20",54,2,19,1183.52495543672,0.19,"beaches29.jpg","beaches","X",0,"yes",1.002554,1,1.44281578063965,"j",1,1,3.5
"21",54,2,20,1182.32495543672,0.2,"beaches29.jpg","beaches","X",0,"yes",1.002554,1,1.44281578063965,"j",1,1,3.5
"22",54,2,21,1199.32495543672,0.21,"beaches29.jpg","beaches","X",0,"yes",1.002554,1,1.44281578063965,"j",1,1,3.5
"23",54,2,22,1208.82495543672,0.22,"beaches29.jpg","beaches","X",0,"yes",1.002554,1,1.44281578063965,"j",1,1,3.5
"24",54,2,23,1200.72495543672,0.23,"beaches29.jpg","beaches","X",0,"yes",1.002554,1,1.44281578063965,"j",1,1,3.5
"25",54,2,24,1207.32495543672,0.24,"beaches29.jpg","beaches","X",0,"yes",1.002554,1,1.44281578063965,"j",1,1,3.5
"26",54,2,25,1206.82495543672,0.25,"beaches29.jpg","beaches","X",0,"yes",1.002554,1,1.44281578063965,"j",1,1,3.5
"27",54,2,26,1207.92495543672,0.26,"beaches29.jpg","beaches","X",0,"yes",1.002554,1,1.44281578063965,"j",1,1,3.5
"28",54,2,27,1202.22495543672,0.27,"beaches29.jpg","beaches","X",0,"yes",1.002554,1,1.44281578063965,"j",1,1,3.5
"29",54,2,28,1201.60677361854,0.28,"beaches29.jpg","beaches","X",0,"yes",1.002554,1,1.44281578063965,"j",1,1,3.5
"30",54,2,29,1209.53606654783,0.29,"beaches29.jpg","beaches","X",0,"yes",1.002554,1,1.44281578063965,"j",1,1,3.5
"31",54,2,30,1201.62495543672,0.3,"beaches29.jpg","beaches","X",0,"yes",1.002554,1,1.44281578063965,"j",1,1,3.5
"32",54,2,31,1198.62495543672,0.31,"beaches29.jpg","beaches","X",0,"yes",1.002554,1,1.44281578063965,"j",1,1,3.5
"33",54,2,32,1202.12495543672,0.32,"beaches29.jpg","beaches","X",0,"yes",1.002554,1,1.44281578063965,"j",1,1,3.5
"34",54,2,33,1217.82495543672,0.33,"beaches29.jpg","beaches","X",0,"yes",1.002554,1,1.44281578063965,"j",1,1,3.5
"35",54,2,34,1206.22495543672,0.34,"beaches29.jpg","beaches","X",0,"yes",1.002554,1,1.44281578063965,"j",1,1,3.5
"36",54,2,35,1203.02495543672,0.35,"beaches29.jpg","beaches","X",0,"yes",1.002554,1,1.44281578063965,"j",1,1,3.5
"37",54,2,36,1217.22495543672,0.36,"beaches29.jpg","beaches","X",0,"yes",1.002554,1,1.44281578063965,"j",1,1,3.5
"38",54,2,37,1206.82495543672,0.37,"beaches29.jpg","beaches","X",0,"yes",1.002554,1,1.44281578063965,"j",1,1,3.5
"39",54,2,38,1192.22495543672,0.38,"beaches29.jpg","beaches","X",0,"yes",1.002554,1,1.44281578063965,"j",1,1,3.5
"40",54,2,39,1182.22495543672,0.39,"beaches29.jpg","beaches","X",0,"yes",1.002554,1,1.44281578063965,"j",1,1,3.5
"41",54,2,40,1174.62495543672,0.4,"beaches29.jpg","beaches","X",0,"yes",1.002554,1,1.44281578063965,"j",1,1,3.5
"42",54,2,41,1161.42495543672,0.41,"beaches29.jpg","beaches","X",0,"yes",1.002554,1,1.44281578063965,"j",1,1,3.5
"43",54,2,42,1141.62495543672,0.42,"beaches29.jpg","beaches","X",0,"yes",1.002554,1,1.44281578063965,"j",1,1,3.5
"44",54,2,43,1135.02495543672,0.43,"beaches29.jpg","beaches","X",0,"yes",1.002554,1,1.44281578063965,"j",1,1,3.5
"45",54,2,44,1129.02495543672,0.44,"beaches29.jpg","beaches","X",0,"yes",1.002554,1,1.44281578063965,"j",1,1,3.5
"46",54,2,45,1117.12495543672,0.45,"beaches29.jpg","beaches","X",0,"yes",1.002554,1,1.44281578063965,"j",1,1,3.5
"47",54,2,46,1074.60677361854,0.46,"beaches29.jpg","beaches","X",0,"yes",1.002554,1,1.44281578063965,"j",1,1,3.5
"48",54,2,47,1055.2027332145,0.47,"beaches29.jpg","beaches","X",0,"yes",1.002554,1,1.44281578063965,"j",1,1,3.5
"49",54,2,48,1050.42495543672,0.48,"beaches29.jpg","beaches","X",0,"yes",1.002554,1,1.44281578063965,"j",1,1,3.5
"50",54,2,49,1040.42495543672,0.49,"beaches29.jpg","beaches","X",0,"yes",1.002554,1,1.44281578063965,"j",1,1,3.5
"51",54,2,50,1011.02495543672,0.5,"beaches29.jpg","beaches","X",0,"yes",1.002554,1,1.44281578063965,"j",1,1,3.5
"52",54,2,51,1002.22495543672,0.51,"beaches29.jpg","beaches","X",0,"yes",1.002554,1,1.44281578063965,"j",1,1,3.5
"53",54,2,52,996.42495543672,0.52,"beaches29.jpg","beaches","X",0,"yes",1.002554,1,1.44281578063965,"j",1,1,3.5
"54",54,2,53,976.52495543672,0.53,"beaches29.jpg","beaches","X",0,"yes",1.002554,1,1.44281578063965,"j",1,1,3.5
"55",54,2,54,968.32495543672,0.54,"beaches29.jpg","beaches","X",0,"yes",1.002554,1,1.44281578063965,"j",1,1,3.5
"56",54,2,55,950.62495543672,0.55,"beaches29.jpg","beaches","X",0,"yes",1.002554,1,1.44281578063965,"j",1,1,3.5
"57",54,2,56,932.970409982175,0.56,"beaches29.jpg","beaches","X",0,"yes",1.002554,1,1.44281578063965,"j",1,1,3.5
"58",54,2,57,921.92495543672,0.57,"beaches29.jpg","beaches","X",0,"yes",1.002554,1,1.44281578063965,"j",1,1,3.5
"59",54,2,58,909.62495543672,0.58,"beaches29.jpg","beaches","X",0,"yes",1.002554,1,1.44281578063965,"j",1,1,3.5
"60",54,2,59,882.758288770054,0.59,"beaches29.jpg","beaches","X",0,"yes",1.002554,1,1.44281578063965,"j",1,1,3.5
"61",54,2,60,888.52495543672,0.6,"beaches29.jpg","beaches","X",0,"yes",1.002554,1,1.44281578063965,"j",1,1,3.5
"62",54,2,61,868.72495543672,0.61,"beaches29.jpg","beaches","X",0,"yes",1.002554,1,1.44281578063965,"j",1,1,3.5
"63",54,2,62,856.92495543672,0.62,"beaches29.jpg","beaches","X",0,"yes",1.002554,1,1.44281578063965,"j",1,1,3.5
"64",54,2,63,848.02495543672,0.63,"beaches29.jpg","beaches","X",0,"yes",1.002554,1,1.44281578063965,"j",1,1,3.5
"65",54,2,64,830.02495543672,0.64,"beaches29.jpg","beaches","X",0,"yes",1.002554,1,1.44281578063965,"j",1,1,3.5
"66",54,2,65,810.72495543672,0.65,"beaches29.jpg","beaches","X",0,"yes",1.002554,1,1.44281578063965,"j",1,1,3.5
"67",54,2,66,805.02495543672,0.66,"beaches29.jpg","beaches","X",0,"yes",1.002554,1,1.44281578063965,"j",1,1,3.5
"68",54,2,67,794.12495543672,0.67,"beaches29.jpg","beaches","X",0,"yes",1.002554,1,1.44281578063965,"j",1,1,3.5
"69",54,2,68,780.22495543672,0.68,"beaches29.jpg","beaches","X",0,"yes",1.002554,1,1.44281578063965,"j",1,1,3.5
"70",54,2,69,768.62495543672,0.69,"beaches29.jpg","beaches","X",0,"yes",1.002554,1,1.44281578063965,"j",1,1,3.5
"71",54,2,70,760.52495543672,0.7,"beaches29.jpg","beaches","X",0,"yes",1.002554,1,1.44281578063965,"j",1,1,3.5
"72",54,2,71,757.82495543672,0.71,"beaches29.jpg","beaches","X",0,"yes",1.002554,1,1.44281578063965,"j",1,1,3.5
"73",54,2,72,742.22495543672,0.72,"beaches29.jpg","beaches","X",0,"yes",1.002554,1,1.44281578063965,"j",1,1,3.5
"74",54,2,73,739.02495543672,0.73,"beaches29.jpg","beaches","X",0,"yes",1.002554,1,1.44281578063965,"j",1,1,3.5
"75",54,2,74,743.22495543672,0.74,"beaches29.jpg","beaches","X",0,"yes",1.002554,1,1.44281578063965,"j",1,1,3.5
"76",54,2,75,728.02495543672,0.75,"beaches29.jpg","beaches","X",0,"yes",1.002554,1,1.44281578063965,"j",1,1,3.5
"77",54,2,76,720.82495543672,0.76,"beaches29.jpg","beaches","X",0,"yes",1.002554,1,1.44281578063965,"j",1,1,3.5
"78",54,2,77,712.42495543672,0.77,"beaches29.jpg","beaches","X",0,"yes",1.002554,1,1.44281578063965,"j",1,1,3.5
"79",54,2,78,702.02495543672,0.78,"beaches29.jpg","beaches","X",0,"yes",1.002554,1,1.44281578063965,"j",1,1,3.5
"80",54,2,79,691.82495543672,0.79,"beaches29.jpg","beaches","X",0,"yes",1.002554,1,1.44281578063965,"j",1,1,3.5
"81",54,2,80,685.52495543672,0.8,"beaches29.jpg","beaches","X",0,"yes",1.002554,1,1.44281578063965,"j",1,1,3.5
"82",54,2,81,686.52495543672,0.81,"beaches29.jpg","beaches","X",0,"yes",1.002554,1,1.44281578063965,"j",1,1,3.5
"83",54,2,82,706.72495543672,0.82,"beaches29.jpg","beaches","X",0,"yes",1.002554,1,1.44281578063965,"j",1,1,3.5
"84",54,2,83,715.02495543672,0.83,"beaches29.jpg","beaches","X",0,"yes",1.002554,1,1.44281578063965,"j",1,1,3.5
"85",54,2,84,718.62495543672,0.84,"beaches29.jpg","beaches","X",0,"yes",1.002554,1,1.44281578063965,"j",1,1,3.5
"86",54,2,85,718.02495543672,0.85,"beaches29.jpg","beaches","X",0,"yes",1.002554,1,1.44281578063965,"j",1,1,3.5
"87",54,2,86,719.22495543672,0.86,"beaches29.jpg","beaches","X",0,"yes",1.002554,1,1.44281578063965,"j",1,1,3.5
"88",54,2,87,716.52495543672,0.87,"beaches29.jpg","beaches","X",0,"yes",1.002554,1,1.44281578063965,"j",1,1,3.5
"89",54,2,88,721.02495543672,0.88,"beaches29.jpg","beaches","X",0,"yes",1.002554,1,1.44281578063965,"j",1,1,3.5
"90",54,2,89,715.02495543672,0.89,"beaches29.jpg","beaches","X",0,"yes",1.002554,1,1.44281578063965,"j",1,1,3.5
"91",54,2,90,721.02495543672,0.9,"beaches29.jpg","beaches","X",0,"yes",1.002554,1,1.44281578063965,"j",1,1,3.5
"92",54,2,91,711.72495543672,0.91,"beaches29.jpg","beaches","X",0,"yes",1.002554,1,1.44281578063965,"j",1,1,3.5
"93",54,2,92,725.42495543672,0.92,"beaches29.jpg","beaches","X",0,"yes",1.002554,1,1.44281578063965,"j",1,1,3.5
"94",54,2,93,736.152228163993,0.93,"beaches29.jpg","beaches","X",0,"yes",1.002554,1,1.44281578063965,"j",1,1,3.5
"95",54,2,94,740.42495543672,0.94,"beaches29.jpg","beaches","X",0,"yes",1.002554,1,1.44281578063965,"j",1,1,3.5
"96",54,2,95,746.72495543672,0.95,"beaches29.jpg","beaches","X",0,"yes",1.002554,1,1.44281578063965,"j",1,1,3.5
"97",54,2,96,743.62495543672,0.96,"beaches29.jpg","beaches","X",0,"yes",1.002554,1,1.44281578063965,"j",1,1,3.5
"98",54,2,97,741.82495543672,0.97,"beaches29.jpg","beaches","X",0,"yes",1.002554,1,1.44281578063965,"j",1,1,3.5
"99",54,2,98,755.02495543672,0.98,"beaches29.jpg","beaches","X",0,"yes",1.002554,1,1.44281578063965,"j",1,1,3.5
"100",54,2,99,765.02495543672,0.99,"beaches29.jpg","beaches","X",0,"yes",1.002554,1,1.44281578063965,"j",1,1,3.5
"101",54,2,100,760.82495543672,1,"beaches29.jpg","beaches","X",0,"yes",1.002554,1,1.44281578063965,"j",1,1,3.5
"102",54,2,101,784.22495543672,1.01,"beaches29.jpg","beaches","X",0,"yes",1.002554,1,1.44281578063965,"j",1,1,3.5
"103",54,2,102,788.12495543672,1.02,"beaches29.jpg","beaches","X",0,"yes",1.002554,1,1.44281578063965,"j",1,1,3.5
"104",54,2,103,794.12495543672,1.03,"beaches29.jpg","beaches","X",0,"yes",1.002554,1,1.44281578063965,"j",1,1,3.5
"105",54,2,104,800.22495543672,1.04,"beaches29.jpg","beaches","X",0,"yes",1.002554,1,1.44281578063965,"j",1,1,3.5
"106",54,2,105,804.22495543672,1.05,"beaches29.jpg","beaches","X",0,"yes",1.002554,1,1.44281578063965,"j",1,1,3.5
"107",54,2,106,814.32495543672,1.06,"beaches29.jpg","beaches","X",0,"yes",1.002554,1,1.44281578063965,"j",1,1,3.5
"108",54,2,107,832.92495543672,1.07,"beaches29.jpg","beaches","X",0,"yes",1.002554,1,1.44281578063965,"j",1,1,3.5
"109",54,2,108,841.82495543672,1.08,"beaches29.jpg","beaches","X",0,"yes",1.002554,1,1.44281578063965,"j",1,1,3.5
"110",54,2,109,849.12495543672,1.09,"beaches29.jpg","beaches","X",0,"yes",1.002554,1,1.44281578063965,"j",1,1,3.5
"111",54,2,110,861.72495543672,1.1,"beaches29.jpg","beaches","X",0,"yes",1.002554,1,1.44281578063965,"j",1,1,3.5
"112",54,2,111,859.32495543672,1.11,"beaches29.jpg","beaches","X",0,"yes",1.002554,1,1.44281578063965,"j",1,1,3.5
"113",54,2,112,873.42495543672,1.12,"beaches29.jpg","beaches","X",0,"yes",1.002554,1,1.44281578063965,"j",1,1,3.5
"114",54,2,113,897.62495543672,1.13,"beaches29.jpg","beaches","X",0,"yes",1.002554,1,1.44281578063965,"j",1,1,3.5
"115",54,2,114,901.52495543672,1.14,"beaches29.jpg","beaches","X",0,"yes",1.002554,1,1.44281578063965,"j",1,1,3.5
"116",54,2,115,914.42495543672,1.15,"beaches29.jpg","beaches","X",0,"yes",1.002554,1,1.44281578063965,"j",1,1,3.5
"117",54,2,116,927.82495543672,1.16,"beaches29.jpg","beaches","X",0,"yes",1.002554,1,1.44281578063965,"j",1,1,3.5
"118",54,2,117,937.72495543672,1.17,"beaches29.jpg","beaches","X",0,"yes",1.002554,1,1.44281578063965,"j",1,1,3.5
"119",54,2,118,935.72495543672,1.18,"beaches29.jpg","beaches","X",0,"yes",1.002554,1,1.44281578063965,"j",1,1,3.5
"120",54,2,119,946.42495543672,1.19,"beaches29.jpg","beaches","X",0,"yes",1.002554,1,1.44281578063965,"j",1,1,3.5
"121",54,2,120,956.42495543672,1.2,"beaches29.jpg","beaches","X",0,"yes",1.002554,1,1.44281578063965,"j",1,1,3.5
"122",54,2,121,972.52495543672,1.21,"beaches29.jpg","beaches","X",0,"yes",1.002554,1,1.44281578063965,"j",1,1,3.5
"123",54,2,122,978.42495543672,1.22,"beaches29.jpg","beaches","X",0,"yes",1.002554,1,1.44281578063965,"j",1,1,3.5
"124",54,2,123,987.42495543672,1.23,"beaches29.jpg","beaches","X",0,"yes",1.002554,1,1.44281578063965,"j",1,1,3.5
"125",54,2,124,986.02495543672,1.24,"beaches29.jpg","beaches","X",0,"yes",1.002554,1,1.44281578063965,"j",1,1,3.5
"126",54,2,125,1001.82495543672,1.25,"beaches29.jpg","beaches","X",0,"yes",1.002554,1,1.44281578063965,"j",1,1,3.5
"127",54,2,126,1012.02495543672,1.26,"beaches29.jpg","beaches","X",0,"yes",1.002554,1,1.44281578063965,"j",1,1,3.5
"128",54,2,127,1012.52495543672,1.27,"beaches29.jpg","beaches","X",0,"yes",1.002554,1,1.44281578063965,"j",1,1,3.5
"129",54,2,128,1027.62495543672,1.28,"beaches29.jpg","beaches","X",0,"yes",1.002554,1,1.44281578063965,"j",1,1,3.5
"130",54,2,129,1029.32495543672,1.29,"beaches29.jpg","beaches","X",0,"yes",1.002554,1,1.44281578063965,"j",1,1,3.5
"131",54,2,130,1026.92495543672,1.3,"beaches29.jpg","beaches","X",0,"yes",1.002554,1,1.44281578063965,"j",1,1,3.5
"132",54,2,131,1036.62495543672,1.31,"beaches29.jpg","beaches","X",0,"yes",1.002554,1,1.44281578063965,"j",1,1,3.5
"133",54,2,132,1048.02495543672,1.32,"beaches29.jpg","beaches","X",0,"yes",1.002554,1,1.44281578063965,"j",1,1,3.5
"134",54,2,133,1047.42495543672,1.33,"beaches29.jpg","beaches","X",0,"yes",1.002554,1,1.44281578063965,"j",1,1,3.5
"135",54,2,134,1049.52495543672,1.34,"beaches29.jpg","beaches","X",0,"yes",1.002554,1,1.44281578063965,"j",1,1,3.5
"136",54,2,135,1048.72495543672,1.35,"beaches29.jpg","beaches","X",0,"yes",1.002554,1,1.44281578063965,"j",1,1,3.5
"137",54,2,136,1053.42495543672,1.36,"beaches29.jpg","beaches","X",0,"yes",1.002554,1,1.44281578063965,"j",1,1,3.5
"138",54,2,137,1060.32495543672,1.37,"beaches29.jpg","beaches","X",0,"yes",1.002554,1,1.44281578063965,"j",1,1,3.5
"139",54,2,138,1061.52495543672,1.38,"beaches29.jpg","beaches","X",0,"yes",1.002554,1,1.44281578063965,"j",1,1,3.5
"140",54,2,139,1069.52495543672,1.39,"beaches29.jpg","beaches","X",0,"yes",1.002554,1,1.44281578063965,"j",1,1,3.5
"141",54,2,140,1069.72495543672,1.4,"beaches29.jpg","beaches","X",0,"yes",1.002554,1,1.44281578063965,"j",1,1,3.5
"142",54,2,141,1062.42495543672,1.41,"beaches29.jpg","beaches","X",0,"yes",1.002554,1,1.44281578063965,"j",1,1,3.5
"143",54,2,142,1071.22495543672,1.42,"beaches29.jpg","beaches","X",0,"yes",1.002554,1,1.44281578063965,"j",1,1,3.5
"144",54,2,143,1071.82495543672,1.43,"beaches29.jpg","beaches","X",0,"yes",1.002554,1,1.44281578063965,"j",1,1,3.5
"145",54,2,144,1081.02495543672,1.44,"beaches29.jpg","beaches","X",0,"yes",1.002554,1,1.44281578063965,"j",1,1,3.5
"146",54,2,145,1092.12495543672,1.45,"beaches29.jpg","beaches","X",0,"yes",1.002554,1,1.44281578063965,"j",1,1,3.5
"147",54,2,146,1103.62495543672,1.46,"beaches29.jpg","beaches","X",0,"yes",1.002554,1,1.44281578063965,"j",1,1,3.5
"148",54,2,147,1095.52495543672,1.47,"beaches29.jpg","beaches","X",0,"yes",1.002554,1,1.44281578063965,"j",1,1,3.5
"149",54,2,148,1121.32495543672,1.48,"beaches29.jpg","beaches","X",0,"yes",1.002554,1,1.44281578063965,"j",1,1,3.5
"150",54,2,149,1113.82495543672,1.49,"beaches29.jpg","beaches","X",0,"yes",1.002554,1,1.44281578063965,"j",1,1,3.5
"151",54,2,150,1092.92495543672,1.5,"beaches29.jpg","beaches","X",0,"yes",1.002554,1,1.44281578063965,"j",1,1,3.5
"152",54,2,151,1089.62495543672,1.51,"beaches29.jpg","beaches","X",0,"yes",1.002554,1,1.44281578063965,"j",1,1,3.5
"153",54,2,152,1109.82495543672,1.52,"beaches29.jpg","beaches","X",0,"yes",1.002554,1,1.44281578063965,"j",1,1,3.5
"154",54,2,153,1108.42495543672,1.53,"beaches29.jpg","beaches","X",0,"yes",1.002554,1,1.44281578063965,"j",1,1,3.5
"155",54,2,154,1116.82495543672,1.54,"beaches29.jpg","beaches","X",0,"yes",1.002554,1,1.44281578063965,"j",1,1,3.5
"156",54,2,155,1110.42495543672,1.55,"beaches29.jpg","beaches","X",0,"yes",1.002554,1,1.44281578063965,"j",1,1,3.5
"157",54,2,156,1111.82495543672,1.56,"beaches29.jpg","beaches","X",0,"yes",1.002554,1,1.44281578063965,"j",1,1,3.5
"158",54,2,157,1121.12495543672,1.57,"beaches29.jpg","beaches","X",0,"yes",1.002554,1,1.44281578063965,"j",1,1,3.5
"159",54,2,158,1131.22495543672,1.58,"beaches29.jpg","beaches","X",0,"yes",1.002554,1,1.44281578063965,"j",1,1,3.5
"160",54,2,159,1139.62495543672,1.59,"beaches29.jpg","beaches","X",0,"yes",1.002554,1,1.44281578063965,"j",1,1,3.5
"161",54,2,160,1143.92495543672,1.6,"beaches29.jpg","beaches","X",0,"yes",1.002554,1,1.44281578063965,"j",1,1,3.5
"162",54,2,161,1142.12495543672,1.61,"beaches29.jpg","beaches","X",0,"yes",1.002554,1,1.44281578063965,"j",1,1,3.5
"163",54,2,162,1152.42495543672,1.62,"beaches29.jpg","beaches","X",0,"yes",1.002554,1,1.44281578063965,"j",1,1,3.5
"164",54,2,163,1159.82495543672,1.63,"beaches29.jpg","beaches","X",0,"yes",1.002554,1,1.44281578063965,"j",1,1,3.5
"165",54,2,164,1160.32495543672,1.64,"beaches29.jpg","beaches","X",0,"yes",1.002554,1,1.44281578063965,"j",1,1,3.5
"166",54,2,165,1172.62495543672,1.65,"beaches29.jpg","beaches","X",0,"yes",1.002554,1,1.44281578063965,"j",1,1,3.5
"167",54,2,166,1181.32495543672,1.66,"beaches29.jpg","beaches","X",0,"yes",1.002554,1,1.44281578063965,"j",1,1,3.5
"168",54,2,167,1178.12495543672,1.67,"beaches29.jpg","beaches","X",0,"yes",1.002554,1,1.44281578063965,"j",1,1,3.5
"169",54,2,168,1195.82495543672,1.68,"beaches29.jpg","beaches","X",0,"yes",1.002554,1,1.44281578063965,"j",1,1,3.5
"170",54,2,169,1201.62495543672,1.69,"beaches29.jpg","beaches","X",0,"yes",1.002554,1,1.44281578063965,"j",1,1,3.5
"171",54,2,170,1206.22495543672,1.7,"beaches29.jpg","beaches","X",0,"yes",1.002554,1,1.44281578063965,"j",1,1,3.5
"172",54,2,171,1195.12495543672,1.71,"beaches29.jpg","beaches","X",0,"yes",1.002554,1,1.44281578063965,"j",1,1,3.5
"173",54,2,172,1216.22495543672,1.72,"beaches29.jpg","beaches","X",0,"yes",1.002554,1,1.44281578063965,"j",1,1,3.5
"174",54,2,173,1220.82495543672,1.73,"beaches29.jpg","beaches","X",0,"yes",1.002554,1,1.44281578063965,"j",1,1,3.5
"175",54,2,174,1226.12495543672,1.74,"beaches29.jpg","beaches","X",0,"yes",1.002554,1,1.44281578063965,"j",1,1,3.5
"176",54,2,175,1223.72495543672,1.75,"beaches29.jpg","beaches","X",0,"yes",1.002554,1,1.44281578063965,"j",1,1,3.5
"177",54,2,176,1230.12495543672,1.76,"beaches29.jpg","beaches","X",0,"yes",1.002554,1,1.44281578063965,"j",1,1,3.5
"178",54,2,177,1243.22495543672,1.77,"beaches29.jpg","beaches","X",0,"yes",1.002554,1,1.44281578063965,"j",1,1,3.5
"179",54,2,178,1239.32495543672,1.78,"beaches29.jpg","beaches","X",0,"yes",1.002554,1,1.44281578063965,"j",1,1,3.5
"180",54,2,179,1253.52495543672,1.79,"beaches29.jpg","beaches","X",0,"yes",1.002554,1,1.44281578063965,"j",1,1,3.5
"181",54,2,180,1256.82495543672,1.8,"beaches29.jpg","beaches","X",0,"yes",1.002554,1,1.44281578063965,"j",1,1,3.5
"182",54,2,181,1261.82495543672,1.81,"beaches29.jpg","beaches","X",0,"yes",1.002554,1,1.44281578063965,"j",1,1,3.5
"183",54,2,182,1270.12495543672,1.82,"beaches29.jpg","beaches","X",0,"yes",1.002554,1,1.44281578063965,"j",1,1,3.5
"184",54,2,183,1259.22495543672,1.83,"beaches29.jpg","beaches","X",0,"yes",1.002554,1,1.44281578063965,"j",1,1,3.5
"185",54,2,184,1272.02495543672,1.84,"beaches29.jpg","beaches","X",0,"yes",1.002554,1,1.44281578063965,"j",1,1,3.5
"186",54,2,185,1272.62495543672,1.85,"beaches29.jpg","beaches","X",0,"yes",1.002554,1,1.44281578063965,"j",1,1,3.5
"187",54,2,186,1280.12495543672,1.86,"beaches29.jpg","beaches","X",0,"yes",1.002554,1,1.44281578063965,"j",1,1,3.5
"188",54,2,187,1278.33404634581,1.87,"beaches29.jpg","beaches","X",0,"yes",1.002554,1,1.44281578063965,"j",1,1,3.5
"189",54,2,188,1283.42495543672,1.88,"beaches29.jpg","beaches","X",0,"yes",1.002554,1,1.44281578063965,"j",1,1,3.5
"190",54,2,189,1281.12495543672,1.89,"beaches29.jpg","beaches","X",0,"yes",1.002554,1,1.44281578063965,"j",1,1,3.5
"191",54,2,190,1286.62495543672,1.9,"beaches29.jpg","beaches","X",0,"yes",1.002554,1,1.44281578063965,"j",1,1,3.5
"192",54,2,191,1277.02495543672,1.91,"beaches29.jpg","beaches","X",0,"yes",1.002554,1,1.44281578063965,"j",1,1,3.5
"193",54,2,192,1284.32495543672,1.92,"beaches29.jpg","beaches","X",0,"yes",1.002554,1,1.44281578063965,"j",1,1,3.5
"194",54,2,193,1290.92495543672,1.93,"beaches29.jpg","beaches","X",0,"yes",1.002554,1,1.44281578063965,"j",1,1,3.5
"195",54,2,194,1297.32495543672,1.94,"beaches29.jpg","beaches","X",0,"yes",1.002554,1,1.44281578063965,"j",1,1,3.5
"196",54,2,195,1281.82495543672,1.95,"beaches29.jpg","beaches","X",0,"yes",1.002554,1,1.44281578063965,"j",1,1,3.5
"197",54,2,196,1289.12495543672,1.96,"beaches29.jpg","beaches","X",0,"yes",1.002554,1,1.44281578063965,"j",1,1,3.5
"198",54,2,197,1291.76650133044,1.97,"beaches29.jpg","beaches","X",0,"yes",1.002554,1,1.44281578063965,"j",1,1,3.5
"199",54,2,198,1295.12543852851,1.98,"beaches29.jpg","beaches","X",0,"yes",1.002554,1,1.44281578063965,"j",1,1,3.5
"200",54,2,199,1299.28002790049,1.99,"beaches29.jpg","beaches","X",0,"yes",1.002554,1,1.44281578063965,"j",1,1,3.5
"201",54,2,200,1303.64234674107,2,"beaches29.jpg","beaches","X",0,"yes",1.002554,1,1.44281578063965,"j",1,1,3.5
"202",54,2,201,1307.79693611305,2.01,"beaches29.jpg","beaches","X",0,"yes",1.002554,1,1.44281578063965,"j",1,1,3.5
"203",54,2,202,1311.95152548503,2.02,"beaches29.jpg","beaches","X",0,"yes",1.002554,1,1.44281578063965,"j",1,1,3.5
"204",54,2,203,1316.10611485701,2.03,"beaches29.jpg","beaches","X",0,"yes",1.002554,1,1.44281578063965,"j",1,1,3.5
"205",54,2,204,1320.26070422899,2.04,"beaches29.jpg","beaches","X",0,"yes",1.002554,1,1.44281578063965,"j",1,1,3.5
"206",54,2,205,1324.41529360097,2.05,"beaches29.jpg","beaches","X",0,"yes",1.002554,1,1.44281578063965,"j",1,1,3.5
"207",54,2,206,1328.56988297295,2.06,"beaches29.jpg","beaches","X",0,"yes",1.002554,1,1.44281578063965,"j",1,1,3.5
"208",54,2,207,1332.72447234493,2.07,"beaches29.jpg","beaches","X",0,"yes",1.002554,1,1.44281578063965,"j",1,1,3.5
"209",54,2,208,1336.87906171691,2.08,"beaches29.jpg","beaches","X",0,"yes",1.002554,1,1.44281578063965,"j",1,1,3.5
"210",54,2,209,1341.03365108889,2.09,"beaches29.jpg","beaches","X",0,"yes",1.002554,1,1.44281578063965,"j",1,1,3.5
"211",54,2,210,1345.18824046087,2.1,"beaches29.jpg","beaches","X",0,"yes",1.002554,1,1.44281578063965,"j",1,1,3.5
"212",54,2,211,1349.34282983286,2.11,"beaches29.jpg","beaches","X",0,"yes",1.002554,1,1.44281578063965,"j",1,1,3.5
"213",54,2,212,1353.49741920484,2.12,"beaches29.jpg","beaches","X",0,"yes",1.002554,1,1.44281578063965,"j",1,1,3.5
"214",54,2,213,1357.65200857682,2.13,"beaches29.jpg","beaches","X",0,"yes",1.002554,1,1.44281578063965,"j",1,1,3.5
"215",54,2,214,1361.5988684802,2.14,"beaches29.jpg","beaches","X",0,"yes",1.002554,1,1.44281578063965,"j",1,1,3.5
"216",54,2,215,1365.75345785218,2.15,"beaches29.jpg","beaches","X",0,"yes",1.002554,1,1.44281578063965,"j",1,1,3.5
"217",54,2,216,1369.90804722416,2.16,"beaches29.jpg","beaches","X",0,"yes",1.002554,1,1.44281578063965,"j",1,1,3.5
"218",54,2,217,1374.06263659614,2.17,"beaches29.jpg","beaches","X",0,"yes",1.002554,1,1.44281578063965,"j",1,1,3.5
"219",54,2,218,1378.60176703092,2.18,"beaches29.jpg","beaches","X",0,"yes",1.002554,1,1.44281578063965,"j",1,1,3.5
"220",54,2,219,1369.62495543672,2.19,"beaches29.jpg","beaches","X",0,"yes",1.002554,1,1.44281578063965,"j",1,1,3.5
"221",54,2,220,1376.62495543672,2.2,"beaches29.jpg","beaches","X",0,"yes",1.002554,1,1.44281578063965,"j",1,1,3.5
"222",54,2,221,1375.02495543672,2.21,"beaches29.jpg","beaches","X",0,"yes",1.002554,1,1.44281578063965,"j",1,1,3.5
"223",54,2,222,1387.72495543672,2.22,"beaches29.jpg","beaches","X",0,"yes",1.002554,1,1.44281578063965,"j",1,1,3.5
"224",54,2,223,1401.92495543672,2.23,"beaches29.jpg","beaches","X",0,"yes",1.002554,1,1.44281578063965,"j",1,1,3.5
"225",54,2,224,1399.12495543672,2.24,"beaches29.jpg","beaches","X",0,"yes",1.002554,1,1.44281578063965,"j",1,1,3.5
"226",54,2,225,1408.97040998217,2.25,"beaches29.jpg","beaches","X",0,"yes",1.002554,1,1.44281578063965,"j",1,1,3.5
"227",54,2,226,1411.75828877005,2.26,"beaches29.jpg","beaches","X",0,"yes",1.002554,1,1.44281578063965,"j",1,1,3.5
"228",54,2,227,1403.97040998217,2.27,"beaches29.jpg","beaches","X",0,"yes",1.002554,1,1.44281578063965,"j",1,1,3.5
"229",54,2,228,1432.31384432561,2.28,"beaches29.jpg","beaches","X",0,"yes",1.002554,1,1.44281578063965,"j",1,1,3.5
"230",54,2,229,1433.2431372549,2.29,"beaches29.jpg","beaches","X",0,"yes",1.002554,1,1.44281578063965,"j",1,1,3.5
"231",54,2,230,1441.09162210339,2.3,"beaches29.jpg","beaches","X",0,"yes",1.002554,1,1.44281578063965,"j",1,1,3.5
"232",54,2,231,1448.2431372549,2.31,"beaches29.jpg","beaches","X",0,"yes",1.002554,1,1.44281578063965,"j",1,1,3.5
"233",54,2,232,1447.2027332145,2.32,"beaches29.jpg","beaches","X",0,"yes",1.002554,1,1.44281578063965,"j",1,1,3.5
"234",54,2,233,1443.60677361854,2.33,"beaches29.jpg","beaches","X",0,"yes",1.002554,1,1.44281578063965,"j",1,1,3.5
"235",54,2,234,1444.09162210339,2.34,"beaches29.jpg","beaches","X",0,"yes",1.002554,1,1.44281578063965,"j",1,1,3.5
"236",54,2,235,1437.69768270945,2.35,"beaches29.jpg","beaches","X",0,"yes",1.002554,1,1.44281578063965,"j",1,1,3.5
"237",54,2,236,1428.98051099228,2.36,"beaches29.jpg","beaches","X",0,"yes",1.002554,1,1.44281578063965,"j",1,1,3.5
"238",54,2,237,1424.33404634581,2.37,"beaches29.jpg","beaches","X",0,"yes",1.002554,1,1.44281578063965,"j",1,1,3.5
"239",54,2,238,1433.53606654783,2.38,"beaches29.jpg","beaches","X",0,"yes",1.002554,1,1.44281578063965,"j",1,1,3.5
"240",54,2,239,1415.02495543672,2.39,"beaches29.jpg","beaches","X",0,"yes",1.002554,1,1.44281578063965,"j",1,1,3.5
"241",54,2,240,1421.82495543672,2.4,"beaches29.jpg","beaches","X",0,"yes",1.002554,1,1.44281578063965,"j",1,1,3.5
"242",54,2,241,1420.32495543672,2.41,"beaches29.jpg","beaches","X",0,"yes",1.002554,1,1.44281578063965,"j",1,1,3.5
"243",54,2,242,1411.82495543672,2.42,"beaches29.jpg","beaches","X",0,"yes",1.002554,1,1.44281578063965,"j",1,1,3.5
"244",54,2,243,1399.92495543672,2.43,"beaches29.jpg","beaches","X",0,"yes",1.002554,1,1.44281578063965,"j",1,1,3.5
"245",54,2,244,1381.92495543672,2.44,"beaches29.jpg","beaches","X",0,"yes",1.002554,1,1.44281578063965,"j",1,1,3.5
"246",54,2,245,1366.72495543672,2.45,"beaches29.jpg","beaches","X",0,"yes",1.002554,1,1.44281578063965,"j",1,1,3.5
"247",54,2,246,1366.82495543672,2.46,"beaches29.jpg","beaches","X",0,"yes",1.002554,1,1.44281578063965,"j",1,1,3.5
"248",54,2,247,1346.82495543672,2.47,"beaches29.jpg","beaches","X",0,"yes",1.002554,1,1.44281578063965,"j",1,1,3.5
"249",54,2,248,1325.52495543672,2.48,"beaches29.jpg","beaches","X",0,"yes",1.002554,1,1.44281578063965,"j",1,1,3.5
"250",54,2,249,1319.92495543672,2.49,"beaches29.jpg","beaches","X",0,"yes",1.002554,1,1.44281578063965,"j",1,1,3.5
"251",54,2,250,1304.06131907308,2.5,"beaches29.jpg","beaches","X",0,"yes",1.002554,1,1.44281578063965,"j",1,1,3.5
"252",54,2,251,1284.64717765894,2.51,"beaches29.jpg","beaches","X",0,"yes",1.002554,1,1.44281578063965,"j",1,1,3.5
"253",54,2,252,1265.06131907308,2.52,"beaches29.jpg","beaches","X",0,"yes",1.002554,1,1.44281578063965,"j",1,1,3.5
"254",54,2,253,1249.31384432561,2.53,"beaches29.jpg","beaches","X",0,"yes",1.002554,1,1.44281578063965,"j",1,1,3.5
"255",54,2,254,1237.2431372549,2.54,"beaches29.jpg","beaches","X",0,"yes",1.002554,1,1.44281578063965,"j",1,1,3.5
"256",54,2,255,1223.86939988116,2.55,"beaches29.jpg","beaches","X",0,"yes",1.002554,1,1.44281578063965,"j",1,1,3.5
"257",54,2,256,1206.32495543672,2.56,"beaches29.jpg","beaches","X",0,"yes",1.002554,1,1.44281578063965,"j",1,1,3.5
"258",54,2,257,1195.62495543672,2.57,"beaches29.jpg","beaches","X",0,"yes",1.002554,1,1.44281578063965,"j",1,1,3.5
"259",54,2,258,1185.82495543672,2.58,"beaches29.jpg","beaches","X",0,"yes",1.002554,1,1.44281578063965,"j",1,1,3.5
"260",54,2,259,1170.62495543672,2.59,"beaches29.jpg","beaches","X",0,"yes",1.002554,1,1.44281578063965,"j",1,1,3.5
"261",54,2,260,1160.02495543672,2.6,"beaches29.jpg","beaches","X",0,"yes",1.002554,1,1.44281578063965,"j",1,1,3.5
"262",54,2,261,1148.12495543672,2.61,"beaches29.jpg","beaches","X",0,"yes",1.002554,1,1.44281578063965,"j",1,1,3.5
"263",54,2,262,1146.12495543672,2.62,"beaches29.jpg","beaches","X",0,"yes",1.002554,1,1.44281578063965,"j",1,1,3.5
"264",54,2,263,1135.82495543672,2.63,"beaches29.jpg","beaches","X",0,"yes",1.002554,1,1.44281578063965,"j",1,1,3.5
"265",54,2,264,1123.32495543672,2.64,"beaches29.jpg","beaches","X",0,"yes",1.002554,1,1.44281578063965,"j",1,1,3.5
"266",54,2,265,1120.52495543672,2.65,"beaches29.jpg","beaches","X",0,"yes",1.002554,1,1.44281578063965,"j",1,1,3.5
"267",54,2,266,1119.52495543672,2.66,"beaches29.jpg","beaches","X",0,"yes",1.002554,1,1.44281578063965,"j",1,1,3.5
"268",54,2,267,1122.32495543672,2.67,"beaches29.jpg","beaches","X",0,"yes",1.002554,1,1.44281578063965,"j",1,1,3.5
"269",54,2,268,1118.62495543672,2.68,"beaches29.jpg","beaches","X",0,"yes",1.002554,1,1.44281578063965,"j",1,1,3.5
"270",54,2,269,1116.52495543672,2.69,"beaches29.jpg","beaches","X",0,"yes",1.002554,1,1.44281578063965,"j",1,1,3.5
"271",54,2,270,1113.82495543672,2.7,"beaches29.jpg","beaches","X",0,"yes",1.002554,1,1.44281578063965,"j",1,1,3.5
"272",54,2,271,1104.22495543672,2.71,"beaches29.jpg","beaches","X",0,"yes",1.002554,1,1.44281578063965,"j",1,1,3.5
"273",54,2,272,1096.02495543672,2.72,"beaches29.jpg","beaches","X",0,"yes",1.002554,1,1.44281578063965,"j",1,1,3.5
"274",54,2,273,1084.72495543672,2.73,"beaches29.jpg","beaches","X",0,"yes",1.002554,1,1.44281578063965,"j",1,1,3.5
"275",54,2,274,1084.12495543672,2.74,"beaches29.jpg","beaches","X",0,"yes",1.002554,1,1.44281578063965,"j",1,1,3.5
"276",54,2,275,1077.02495543672,2.75,"beaches29.jpg","beaches","X",0,"yes",1.002554,1,1.44281578063965,"j",1,1,3.5
"277",54,2,276,1077.92495543672,2.76,"beaches29.jpg","beaches","X",0,"yes",1.002554,1,1.44281578063965,"j",1,1,3.5
"278",54,2,277,1086.12495543672,2.77,"beaches29.jpg","beaches","X",0,"yes",1.002554,1,1.44281578063965,"j",1,1,3.5
"279",54,2,278,1096.32495543672,2.78,"beaches29.jpg","beaches","X",0,"yes",1.002554,1,1.44281578063965,"j",1,1,3.5
"280",54,2,279,1099.02495543672,2.79,"beaches29.jpg","beaches","X",0,"yes",1.002554,1,1.44281578063965,"j",1,1,3.5
"281",54,2,280,1095.32495543672,2.8,"beaches29.jpg","beaches","X",0,"yes",1.002554,1,1.44281578063965,"j",1,1,3.5
"282",54,2,281,1100.22495543672,2.81,"beaches29.jpg","beaches","X",0,"yes",1.002554,1,1.44281578063965,"j",1,1,3.5
"283",54,2,282,1093.52495543672,2.82,"beaches29.jpg","beaches","X",0,"yes",1.002554,1,1.44281578063965,"j",1,1,3.5
"284",54,2,283,1099.02495543672,2.83,"beaches29.jpg","beaches","X",0,"yes",1.002554,1,1.44281578063965,"j",1,1,3.5
"285",54,2,284,1100.42495543672,2.84,"beaches29.jpg","beaches","X",0,"yes",1.002554,1,1.44281578063965,"j",1,1,3.5
"286",54,2,285,1102.72495543672,2.85,"beaches29.jpg","beaches","X",0,"yes",1.002554,1,1.44281578063965,"j",1,1,3.5
"287",54,2,286,1111.72495543672,2.86,"beaches29.jpg","beaches","X",0,"yes",1.002554,1,1.44281578063965,"j",1,1,3.5
"288",54,2,287,1116.42495543672,2.87,"beaches29.jpg","beaches","X",0,"yes",1.002554,1,1.44281578063965,"j",1,1,3.5
"289",54,2,288,1114.32495543672,2.88,"beaches29.jpg","beaches","X",0,"yes",1.002554,1,1.44281578063965,"j",1,1,3.5
"290",54,2,289,1124.92495543672,2.89,"beaches29.jpg","beaches","X",0,"yes",1.002554,1,1.44281578063965,"j",1,1,3.5
"291",54,2,290,1134.02495543672,2.9,"beaches29.jpg","beaches","X",0,"yes",1.002554,1,1.44281578063965,"j",1,1,3.5
"292",54,2,291,1135.92495543672,2.91,"beaches29.jpg","beaches","X",0,"yes",1.002554,1,1.44281578063965,"j",1,1,3.5
"293",54,2,292,1135.62495543672,2.92,"beaches29.jpg","beaches","X",0,"yes",1.002554,1,1.44281578063965,"j",1,1,3.5
"294",54,2,293,1137.92495543672,2.93,"beaches29.jpg","beaches","X",0,"yes",1.002554,1,1.44281578063965,"j",1,1,3.5
"295",54,2,294,1151.52495543672,2.94,"beaches29.jpg","beaches","X",0,"yes",1.002554,1,1.44281578063965,"j",1,1,3.5
"296",54,2,295,1170.12495543672,2.95,"beaches29.jpg","beaches","X",0,"yes",1.002554,1,1.44281578063965,"j",1,1,3.5
"297",54,2,296,1175.82495543672,2.96,"beaches29.jpg","beaches","X",0,"yes",1.002554,1,1.44281578063965,"j",1,1,3.5
"298",54,2,297,1175.02495543672,2.97,"beaches29.jpg","beaches","X",0,"yes",1.002554,1,1.44281578063965,"j",1,1,3.5
"299",54,2,298,1181.52495543672,2.98,"beaches29.jpg","beaches","X",0,"yes",1.002554,1,1.44281578063965,"j",1,1,3.5
"300",54,2,299,1185.52495543672,2.99,"beaches29.jpg","beaches","X",0,"yes",1.002554,1,1.44281578063965,"j",1,1,3.5
"301",54,2,300,1188.82495543672,3,"beaches29.jpg","beaches","X",0,"yes",1.002554,1,1.44281578063965,"j",1,1,3.5
"302",54,2,301,1196.32495543672,3.01,"beaches29.jpg","beaches","X",0,"yes",1.002554,1,1.44281578063965,"j",1,1,3.5
"303",54,2,302,1207.02495543672,3.02,"beaches29.jpg","beaches","X",0,"yes",1.002554,1,1.44281578063965,"j",1,1,3.5
"304",54,2,303,1225.52495543672,3.03,"beaches29.jpg","beaches","X",0,"yes",1.002554,1,1.44281578063965,"j",1,1,3.5
"305",54,2,304,1236.62495543672,3.04,"beaches29.jpg","beaches","X",0,"yes",1.002554,1,1.44281578063965,"j",1,1,3.5
"306",54,2,305,1248.82495543672,3.05,"beaches29.jpg","beaches","X",0,"yes",1.002554,1,1.44281578063965,"j",1,1,3.5
"307",54,2,306,1260.72495543672,3.06,"beaches29.jpg","beaches","X",0,"yes",1.002554,1,1.44281578063965,"j",1,1,3.5
"308",54,2,307,1268.72495543672,3.07,"beaches29.jpg","beaches","X",0,"yes",1.002554,1,1.44281578063965,"j",1,1,3.5
"309",54,2,308,1277.82495543672,3.08,"beaches29.jpg","beaches","X",0,"yes",1.002554,1,1.44281578063965,"j",1,1,3.5
"310",54,2,309,1279.22495543672,3.09,"beaches29.jpg","beaches","X",0,"yes",1.002554,1,1.44281578063965,"j",1,1,3.5
"311",54,2,310,1282.02495543672,3.1,"beaches29.jpg","beaches","X",0,"yes",1.002554,1,1.44281578063965,"j",1,1,3.5
"312",54,2,311,1298.22495543672,3.11,"beaches29.jpg","beaches","X",0,"yes",1.002554,1,1.44281578063965,"j",1,1,3.5
"313",54,2,312,1305.92495543672,3.12,"beaches29.jpg","beaches","X",0,"yes",1.002554,1,1.44281578063965,"j",1,1,3.5
"314",54,2,313,1314.02495543672,3.13,"beaches29.jpg","beaches","X",0,"yes",1.002554,1,1.44281578063965,"j",1,1,3.5
"315",54,2,314,1317.92495543672,3.14,"beaches29.jpg","beaches","X",0,"yes",1.002554,1,1.44281578063965,"j",1,1,3.5
"316",54,2,315,1328.92495543672,3.15,"beaches29.jpg","beaches","X",0,"yes",1.002554,1,1.44281578063965,"j",1,1,3.5
"317",54,2,316,1335.82495543672,3.16,"beaches29.jpg","beaches","X",0,"yes",1.002554,1,1.44281578063965,"j",1,1,3.5
"318",54,2,317,1335.62495543672,3.17,"beaches29.jpg","beaches","X",0,"yes",1.002554,1,1.44281578063965,"j",1,1,3.5
"319",54,2,318,1342.92495543672,3.18,"beaches29.jpg","beaches","X",0,"yes",1.002554,1,1.44281578063965,"j",1,1,3.5
"320",54,2,319,1347.02495543672,3.19,"beaches29.jpg","beaches","X",0,"yes",1.002554,1,1.44281578063965,"j",1,1,3.5
"321",54,2,320,1345.82495543672,3.2,"beaches29.jpg","beaches","X",0,"yes",1.002554,1,1.44281578063965,"j",1,1,3.5
"322",54,2,321,1346.82495543672,3.21,"beaches29.jpg","beaches","X",0,"yes",1.002554,1,1.44281578063965,"j",1,1,3.5
"323",54,2,322,1360.32495543672,3.22,"beaches29.jpg","beaches","X",0,"yes",1.002554,1,1.44281578063965,"j",1,1,3.5
"324",54,2,323,1344.42495543672,3.23,"beaches29.jpg","beaches","X",0,"yes",1.002554,1,1.44281578063965,"j",1,1,3.5
"325",54,2,324,1355.72495543672,3.24,"beaches29.jpg","beaches","X",0,"yes",1.002554,1,1.44281578063965,"j",1,1,3.5
"326",54,2,325,1370.32495543672,3.25,"beaches29.jpg","beaches","X",0,"yes",1.002554,1,1.44281578063965,"j",1,1,3.5
"327",54,2,326,1367.52495543672,3.26,"beaches29.jpg","beaches","X",0,"yes",1.002554,1,1.44281578063965,"j",1,1,3.5
"328",54,2,327,1365.12495543672,3.27,"beaches29.jpg","beaches","X",0,"yes",1.002554,1,1.44281578063965,"j",1,1,3.5
"329",54,2,328,1353.02495543672,3.28,"beaches29.jpg","beaches","X",0,"yes",1.002554,1,1.44281578063965,"j",1,1,3.5
"330",54,2,329,1366.72495543672,3.29,"beaches29.jpg","beaches","X",0,"yes",1.002554,1,1.44281578063965,"j",1,1,3.5
"331",54,2,330,1369.22495543672,3.3,"beaches29.jpg","beaches","X",0,"yes",1.002554,1,1.44281578063965,"j",1,1,3.5
"332",54,2,331,1376.62495543672,3.31,"beaches29.jpg","beaches","X",0,"yes",1.002554,1,1.44281578063965,"j",1,1,3.5
"333",54,2,332,1384.42495543672,3.32,"beaches29.jpg","beaches","X",0,"yes",1.002554,1,1.44281578063965,"j",1,1,3.5
"334",54,2,333,1385.72495543672,3.33,"beaches29.jpg","beaches","X",0,"yes",1.002554,1,1.44281578063965,"j",1,1,3.5
"335",54,2,334,1393.82495543672,3.34,"beaches29.jpg","beaches","X",0,"yes",1.002554,1,1.44281578063965,"j",1,1,3.5
"336",54,2,335,1407.22495543672,3.35,"beaches29.jpg","beaches","X",0,"yes",1.002554,1,1.44281578063965,"j",1,1,3.5
"337",54,2,336,1392.65454727345,3.36,"beaches29.jpg","beaches","X",0,"yes",1.002554,1,1.44281578063965,"j",1,1,3.5
"338",54,2,337,1393.16475135509,3.37,"beaches29.jpg","beaches","X",0,"yes",1.002554,1,1.44281578063965,"j",1,1,3.5
"339",54,2,338,1393.67495543672,3.38,"beaches29.jpg","beaches","X",0,"yes",1.002554,1,1.44281578063965,"j",1,1,3.5
"340",54,2,339,1394.18515951835,3.39,"beaches29.jpg","beaches","X",0,"yes",1.002554,1,1.44281578063965,"j",1,1,3.5
"341",54,2,340,1394.69536359999,3.4,"beaches29.jpg","beaches","X",0,"yes",1.002554,1,1.44281578063965,"j",1,1,3.5
"342",54,2,341,1395.20556768162,3.41,"beaches29.jpg","beaches","X",0,"yes",1.002554,1,1.44281578063965,"j",1,1,3.5
"343",54,2,342,1395.71577176325,3.42,"beaches29.jpg","beaches","X",0,"yes",1.002554,1,1.44281578063965,"j",1,1,3.5
"344",54,2,343,1396.22597584488,3.43,"beaches29.jpg","beaches","X",0,"yes",1.002554,1,1.44281578063965,"j",1,1,3.5
"345",54,2,344,1396.73617992652,3.44,"beaches29.jpg","beaches","X",0,"yes",1.002554,1,1.44281578063965,"j",1,1,3.5
"346",54,2,345,1397.24638400815,3.45,"beaches29.jpg","beaches","X",0,"yes",1.002554,1,1.44281578063965,"j",1,1,3.5
"347",54,2,346,1397.75658808978,3.46,"beaches29.jpg","beaches","X",0,"yes",1.002554,1,1.44281578063965,"j",1,1,3.5
"348",54,2,347,1398.26679217141,3.47,"beaches29.jpg","beaches","X",0,"yes",1.002554,1,1.44281578063965,"j",1,1,3.5
"349",54,2,348,1398.77699625305,3.48,"beaches29.jpg","beaches","X",0,"yes",1.002554,1,1.44281578063965,"j",1,1,3.5
"350",54,2,349,1399.28720033468,3.49,"beaches29.jpg","beaches","X",0,"yes",1.002554,1,1.44281578063965,"j",1,1,3.5
"351",54,2,350,1399.82291462039,3.5,"beaches29.jpg","beaches","X",0,"yes",1.002554,1,1.44281578063965,"j",1,1,3.5
"352",54,2,351,1400.33311870203,3.51,"beaches29.jpg","beaches","X",0,"yes",1.002554,1,1.44281578063965,"j",1,1,3.5
"353",54,2,352,1400.81781257958,3.52,"beaches29.jpg","beaches","X",0,"yes",1.002554,1,1.44281578063965,"j",1,1,3.5
"354",54,2,353,1401.32801666121,3.53,"beaches29.jpg","beaches","X",0,"yes",1.002554,1,1.44281578063965,"j",1,1,3.5
"355",54,2,354,1401.83822074284,3.54,"beaches29.jpg","beaches","X",0,"yes",1.002554,1,1.44281578063965,"j",1,1,3.5
"356",54,2,355,1403.11781257958,3.55,"beaches29.jpg","beaches","X",0,"yes",1.002554,1,1.44281578063965,"j",1,1,3.5
"357",54,2,356,1406.92495543672,3.56,"beaches29.jpg","beaches","X",0,"yes",1.002554,1,1.44281578063965,"j",1,1,3.5
"358",54,2,357,1409.52495543672,3.57,"beaches29.jpg","beaches","X",0,"yes",1.002554,1,1.44281578063965,"j",1,1,3.5
"359",54,2,358,1418.22495543672,3.58,"beaches29.jpg","beaches","X",0,"yes",1.002554,1,1.44281578063965,"j",1,1,3.5
"360",54,2,359,1425.92495543672,3.59,"beaches29.jpg","beaches","X",0,"yes",1.002554,1,1.44281578063965,"j",1,1,3.5
"361",54,2,360,1427.92495543672,3.6,"beaches29.jpg","beaches","X",0,"yes",1.002554,1,1.44281578063965,"j",1,1,3.5
"362",54,2,361,1430.62495543672,3.61,"beaches29.jpg","beaches","X",0,"yes",1.002554,1,1.44281578063965,"j",1,1,3.5
"363",54,2,362,1442.62495543672,3.62,"beaches29.jpg","beaches","X",0,"yes",1.002554,1,1.44281578063965,"j",1,1,3.5
"364",54,2,363,1433.72495543672,3.63,"beaches29.jpg","beaches","X",0,"yes",1.002554,1,1.44281578063965,"j",1,1,3.5
"365",54,2,364,1433.92495543672,3.64,"beaches29.jpg","beaches","X",0,"yes",1.002554,1,1.44281578063965,"j",1,1,3.5
"366",54,2,365,1437.42495543672,3.65,"beaches29.jpg","beaches","X",0,"yes",1.002554,1,1.44281578063965,"j",1,1,3.5
"367",54,2,366,1441.92495543672,3.66,"beaches29.jpg","beaches","X",0,"yes",1.002554,1,1.44281578063965,"j",1,1,3.5
"368",54,2,367,1444.82495543672,3.67,"beaches29.jpg","beaches","X",0,"yes",1.002554,1,1.44281578063965,"j",1,1,3.5
"369",54,2,368,1443.02495543672,3.68,"beaches29.jpg","beaches","X",0,"yes",1.002554,1,1.44281578063965,"j",1,1,3.5
"370",54,2,369,1457.72495543672,3.69,"beaches29.jpg","beaches","X",0,"yes",1.002554,1,1.44281578063965,"j",1,1,3.5
"371",54,2,370,1463.02495543672,3.7,"beaches29.jpg","beaches","X",0,"yes",1.002554,1,1.44281578063965,"j",1,1,3.5
"372",54,2,371,1447.32495543672,3.71,"beaches29.jpg","beaches","X",0,"yes",1.002554,1,1.44281578063965,"j",1,1,3.5
"373",54,2,372,1439.92495543672,3.72,"beaches29.jpg","beaches","X",0,"yes",1.002554,1,1.44281578063965,"j",1,1,3.5
"374",54,2,373,1438.02495543672,3.73,"beaches29.jpg","beaches","X",0,"yes",1.002554,1,1.44281578063965,"j",1,1,3.5
"375",54,2,374,1445.42495543672,3.74,"beaches29.jpg","beaches","X",0,"yes",1.002554,1,1.44281578063965,"j",1,1,3.5
"376",54,2,375,1440.87950089127,3.75,"beaches29.jpg","beaches","X",0,"yes",1.002554,1,1.44281578063965,"j",1,1,3.5
"377",54,2,376,1424.2027332145,3.76,"beaches29.jpg","beaches","X",0,"yes",1.002554,1,1.44281578063965,"j",1,1,3.5
"378",54,2,377,1425.02495543672,3.77,"beaches29.jpg","beaches","X",0,"yes",1.002554,1,1.44281578063965,"j",1,1,3.5
"379",54,2,378,1419.32495543672,3.78,"beaches29.jpg","beaches","X",0,"yes",1.002554,1,1.44281578063965,"j",1,1,3.5
"380",54,2,379,1400.42495543672,3.79,"beaches29.jpg","beaches","X",0,"yes",1.002554,1,1.44281578063965,"j",1,1,3.5
"381",54,2,380,1401.12495543672,3.8,"beaches29.jpg","beaches","X",0,"yes",1.002554,1,1.44281578063965,"j",1,1,3.5
"382",54,2,381,1394.52495543672,3.81,"beaches29.jpg","beaches","X",0,"yes",1.002554,1,1.44281578063965,"j",1,1,3.5
"383",54,2,382,1384.82495543672,3.82,"beaches29.jpg","beaches","X",0,"yes",1.002554,1,1.44281578063965,"j",1,1,3.5
"384",54,2,383,1366.68357612638,3.83,"beaches29.jpg","beaches","X",0,"yes",1.002554,1,1.44281578063965,"j",1,1,3.5
"385",54,2,384,1353.92495543672,3.84,"beaches29.jpg","beaches","X",0,"yes",1.002554,1,1.44281578063965,"j",1,1,3.5
"386",54,2,385,1341.16633474707,3.85,"beaches29.jpg","beaches","X",0,"yes",1.002554,1,1.44281578063965,"j",1,1,3.5
"387",54,2,386,1328.40771405741,3.86,"beaches29.jpg","beaches","X",0,"yes",1.002554,1,1.44281578063965,"j",1,1,3.5
"388",54,2,387,1315.64909336775,3.87,"beaches29.jpg","beaches","X",0,"yes",1.002554,1,1.44281578063965,"j",1,1,3.5
"389",54,2,388,1302.8904726781,3.88,"beaches29.jpg","beaches","X",0,"yes",1.002554,1,1.44281578063965,"j",1,1,3.5
"390",54,2,389,1290.13185198844,3.89,"beaches29.jpg","beaches","X",0,"yes",1.002554,1,1.44281578063965,"j",1,1,3.5
"391",54,2,390,1277.37323129879,3.9,"beaches29.jpg","beaches","X",0,"yes",1.002554,1,1.44281578063965,"j",1,1,3.5
"392",54,2,391,1264.61461060913,3.91,"beaches29.jpg","beaches","X",0,"yes",1.002554,1,1.44281578063965,"j",1,1,3.5
"393",54,2,392,1251.85598991948,3.92,"beaches29.jpg","beaches","X",0,"yes",1.002554,1,1.44281578063965,"j",1,1,3.5
"394",54,2,393,1239.09736922982,3.93,"beaches29.jpg","beaches","X",0,"yes",1.002554,1,1.44281578063965,"j",1,1,3.5
"395",54,2,394,1226.33874854017,3.94,"beaches29.jpg","beaches","X",0,"yes",1.002554,1,1.44281578063965,"j",1,1,3.5
"396",54,2,395,1213.58012785051,3.95,"beaches29.jpg","beaches","X",0,"yes",1.002554,1,1.44281578063965,"j",1,1,3.5
"397",54,2,396,1200.82150716086,3.96,"beaches29.jpg","beaches","X",0,"yes",1.002554,1,1.44281578063965,"j",1,1,3.5
"398",54,2,397,1188.0628864712,3.97,"beaches29.jpg","beaches","X",0,"yes",1.002554,1,1.44281578063965,"j",1,1,3.5
"399",54,2,398,1175.30426578155,3.98,"beaches29.jpg","beaches","X",0,"yes",1.002554,1,1.44281578063965,"j",1,1,3.5
"400",54,2,399,1162.54564509189,3.99,"beaches29.jpg","beaches","X",0,"yes",1.002554,1,1.44281578063965,"j",1,1,3.5
"401",54,2,400,1149.14909336775,4,"beaches29.jpg","beaches","X",0,"yes",1.002554,1,1.44281578063965,"j",1,1,3.5
"402",54,2,401,1135.75254164362,4.01,"beaches29.jpg","beaches","X",0,"yes",1.002554,1,1.44281578063965,"j",1,1,3.5
"403",54,2,402,1123.63185198844,4.02,"beaches29.jpg","beaches","X",0,"yes",1.002554,1,1.44281578063965,"j",1,1,3.5
"404",54,2,403,1111.51116233327,4.03,"beaches29.jpg","beaches","X",0,"yes",1.002554,1,1.44281578063965,"j",1,1,3.5
"405",54,2,404,1098.75254164362,4.04,"beaches29.jpg","beaches","X",0,"yes",1.002554,1,1.44281578063965,"j",1,1,3.5
"406",54,2,405,1085.35598991948,4.05,"beaches29.jpg","beaches","X",0,"yes",1.002554,1,1.44281578063965,"j",1,1,3.5
"407",54,2,406,1070.12227344438,4.06,"beaches29.jpg","beaches","X",0,"yes",1.002554,1,1.44281578063965,"j",1,1,3.5
"408",54,2,407,1065.62495543672,4.07,"beaches29.jpg","beaches","X",0,"yes",1.002554,1,1.44281578063965,"j",1,1,3.5
"409",54,2,408,1061.62495543672,4.08,"beaches29.jpg","beaches","X",0,"yes",1.002554,1,1.44281578063965,"j",1,1,3.5
"410",54,2,409,1052.42495543672,4.09,"beaches29.jpg","beaches","X",0,"yes",1.002554,1,1.44281578063965,"j",1,1,3.5
"411",54,2,410,1049.6800311104,4.1,"beaches29.jpg","beaches","X",0,"yes",1.002554,1,1.44281578063965,"j",1,1,3.5
"412",54,2,411,1050.33193218091,4.11,"beaches29.jpg","beaches","X",0,"yes",1.002554,1,1.44281578063965,"j",1,1,3.5
"413",54,2,412,1051.19571955632,4.12,"beaches29.jpg","beaches","X",0,"yes",1.002554,1,1.44281578063965,"j",1,1,3.5
"414",54,2,413,1052.10269630051,4.13,"beaches29.jpg","beaches","X",0,"yes",1.002554,1,1.44281578063965,"j",1,1,3.5
"415",54,2,414,1052.96648367592,4.14,"beaches29.jpg","beaches","X",0,"yes",1.002554,1,1.44281578063965,"j",1,1,3.5
"416",54,2,415,1053.78708168257,4.15,"beaches29.jpg","beaches","X",0,"yes",1.002554,1,1.44281578063965,"j",1,1,3.5
"417",54,2,416,1054.65086905798,4.16,"beaches29.jpg","beaches","X",0,"yes",1.002554,1,1.44281578063965,"j",1,1,3.5
"418",54,2,417,1055.55784580217,4.17,"beaches29.jpg","beaches","X",0,"yes",1.002554,1,1.44281578063965,"j",1,1,3.5
"419",54,2,418,1056.42163317758,4.18,"beaches29.jpg","beaches","X",0,"yes",1.002554,1,1.44281578063965,"j",1,1,3.5
"420",54,2,419,1057.24223118423,4.19,"beaches29.jpg","beaches","X",0,"yes",1.002554,1,1.44281578063965,"j",1,1,3.5
"421",54,2,420,1058.10601855964,4.2,"beaches29.jpg","beaches","X",0,"yes",1.002554,1,1.44281578063965,"j",1,1,3.5
"422",54,2,421,1059.01299530383,4.21,"beaches29.jpg","beaches","X",0,"yes",1.002554,1,1.44281578063965,"j",1,1,3.5
"423",54,2,422,1059.87678267925,4.22,"beaches29.jpg","beaches","X",0,"yes",1.002554,1,1.44281578063965,"j",1,1,3.5
"424",54,2,423,1060.69738068589,4.23,"beaches29.jpg","beaches","X",0,"yes",1.002554,1,1.44281578063965,"j",1,1,3.5
"425",54,2,424,1061.5611680613,4.24,"beaches29.jpg","beaches","X",0,"yes",1.002554,1,1.44281578063965,"j",1,1,3.5
"426",54,2,425,1062.46814480549,4.25,"beaches29.jpg","beaches","X",0,"yes",1.002554,1,1.44281578063965,"j",1,1,3.5
"427",54,2,426,1063.37512154968,4.26,"beaches29.jpg","beaches","X",0,"yes",1.002554,1,1.44281578063965,"j",1,1,3.5
"428",54,2,427,1064.19571955632,4.27,"beaches29.jpg","beaches","X",0,"yes",1.002554,1,1.44281578063965,"j",1,1,3.5
"429",54,2,428,1065.01631756297,4.28,"beaches29.jpg","beaches","X",0,"yes",1.002554,1,1.44281578063965,"j",1,1,3.5
"430",54,2,429,1065.88010493838,4.29,"beaches29.jpg","beaches","X",0,"yes",1.002554,1,1.44281578063965,"j",1,1,3.5
"431",54,2,430,1066.78708168257,4.3,"beaches29.jpg","beaches","X",0,"yes",1.002554,1,1.44281578063965,"j",1,1,3.5
"432",54,2,431,1067.65086905798,4.31,"beaches29.jpg","beaches","X",0,"yes",1.002554,1,1.44281578063965,"j",1,1,3.5
"433",54,2,432,1068.47146706463,4.32,"beaches29.jpg","beaches","X",0,"yes",1.002554,1,1.44281578063965,"j",1,1,3.5
"434",54,2,433,1069.33525444004,4.33,"beaches29.jpg","beaches","X",0,"yes",1.002554,1,1.44281578063965,"j",1,1,3.5
"435",54,2,434,1070.24223118423,4.34,"beaches29.jpg","beaches","X",0,"yes",1.002554,1,1.44281578063965,"j",1,1,3.5
"436",54,2,435,1071.10601855964,4.35,"beaches29.jpg","beaches","X",0,"yes",1.002554,1,1.44281578063965,"j",1,1,3.5
"437",54,2,436,1071.92661656629,4.36,"beaches29.jpg","beaches","X",0,"yes",1.002554,1,1.44281578063965,"j",1,1,3.5
"438",54,2,437,1072.7904039417,4.37,"beaches29.jpg","beaches","X",0,"yes",1.002554,1,1.44281578063965,"j",1,1,3.5
"439",54,2,438,1073.69738068589,4.38,"beaches29.jpg","beaches","X",0,"yes",1.002554,1,1.44281578063965,"j",1,1,3.5
"440",54,2,439,1074.5611680613,4.39,"beaches29.jpg","beaches","X",0,"yes",1.002554,1,1.44281578063965,"j",1,1,3.5
"441",54,2,440,1079.49538733041,4.4,"beaches29.jpg","beaches","X",0,"yes",1.002554,1,1.44281578063965,"j",1,1,3.5
"442",54,2,441,1078.42495543672,4.41,"beaches29.jpg","beaches","X",0,"yes",1.002554,1,1.44281578063965,"j",1,1,3.5
"443",54,3,0,-19.321568627451,0,"parks52.jpg","parks","X",0,"yes",0.999831,1,0.608582735061646,"j",1,1,3.5
"444",54,3,1,-15.621568627451,0.01,"parks52.jpg","parks","X",0,"yes",0.999831,1,0.608582735061646,"j",1,1,3.5
"445",54,3,2,5.67843137254895,0.02,"parks52.jpg","parks","X",0,"yes",0.999831,1,0.608582735061646,"j",1,1,3.5
"446",54,3,3,4.97843137254895,0.03,"parks52.jpg","parks","X",0,"yes",0.999831,1,0.608582735061646,"j",1,1,3.5
"447",54,3,4,22.2784313725489,0.04,"parks52.jpg","parks","X",0,"yes",0.999831,1,0.608582735061646,"j",1,1,3.5
"448",54,3,5,17.7784313725489,0.05,"parks52.jpg","parks","X",0,"yes",0.999831,1,0.608582735061646,"j",1,1,3.5
"449",54,3,6,15.6784313725489,0.06,"parks52.jpg","parks","X",0,"yes",0.999831,1,0.608582735061646,"j",1,1,3.5
"450",54,3,7,20.378431372549,0.07,"parks52.jpg","parks","X",0,"yes",0.999831,1,0.608582735061646,"j",1,1,3.5
"451",54,3,8,19.0784313725489,0.08,"parks52.jpg","parks","X",0,"yes",0.999831,1,0.608582735061646,"j",1,1,3.5
"452",54,3,9,44.578431372549,0.09,"parks52.jpg","parks","X",0,"yes",0.999831,1,0.608582735061646,"j",1,1,3.5
"453",54,3,10,36.778431372549,0.1,"parks52.jpg","parks","X",0,"yes",0.999831,1,0.608582735061646,"j",1,1,3.5
"454",54,3,11,49.4784313725489,0.11,"parks52.jpg","parks","X",0,"yes",0.999831,1,0.608582735061646,"j",1,1,3.5
"455",54,3,12,60.878431372549,0.12,"parks52.jpg","parks","X",0,"yes",0.999831,1,0.608582735061646,"j",1,1,3.5
"456",54,3,13,72.778431372549,0.13,"parks52.jpg","parks","X",0,"yes",0.999831,1,0.608582735061646,"j",1,1,3.5
"457",54,3,14,75.878431372549,0.14,"parks52.jpg","parks","X",0,"yes",0.999831,1,0.608582735061646,"j",1,1,3.5
"458",54,3,15,83.978431372549,0.15,"parks52.jpg","parks","X",0,"yes",0.999831,1,0.608582735061646,"j",1,1,3.5
"459",54,3,16,85.1784313725489,0.16,"parks52.jpg","parks","X",0,"yes",0.999831,1,0.608582735061646,"j",1,1,3.5
"460",54,3,17,90.078431372549,0.17,"parks52.jpg","parks","X",0,"yes",0.999831,1,0.608582735061646,"j",1,1,3.5
"461",54,3,18,92.1784313725489,0.18,"parks52.jpg","parks","X",0,"yes",0.999831,1,0.608582735061646,"j",1,1,3.5
"462",54,3,19,118.378431372549,0.19,"parks52.jpg","parks","X",0,"yes",0.999831,1,0.608582735061646,"j",1,1,3.5
"463",54,3,20,115.078431372549,0.2,"parks52.jpg","parks","X",0,"yes",0.999831,1,0.608582735061646,"j",1,1,3.5
"464",54,3,21,129.578431372549,0.21,"parks52.jpg","parks","X",0,"yes",0.999831,1,0.608582735061646,"j",1,1,3.5
"465",54,3,22,129.678431372549,0.22,"parks52.jpg","parks","X",0,"yes",0.999831,1,0.608582735061646,"j",1,1,3.5
"466",54,3,23,137.678431372549,0.23,"parks52.jpg","parks","X",0,"yes",0.999831,1,0.608582735061646,"j",1,1,3.5
"467",54,3,24,139.878431372549,0.24,"parks52.jpg","parks","X",0,"yes",0.999831,1,0.608582735061646,"j",1,1,3.5
"468",54,3,25,147.278431372549,0.25,"parks52.jpg","parks","X",0,"yes",0.999831,1,0.608582735061646,"j",1,1,3.5
"469",54,3,26,151.278431372549,0.26,"parks52.jpg","parks","X",0,"yes",0.999831,1,0.608582735061646,"j",1,1,3.5
"470",54,3,27,142.378431372549,0.27,"parks52.jpg","parks","X",0,"yes",0.999831,1,0.608582735061646,"j",1,1,3.5
"471",54,3,28,152.078431372549,0.28,"parks52.jpg","parks","X",0,"yes",0.999831,1,0.608582735061646,"j",1,1,3.5
"472",54,3,29,158.18954248366,0.29,"parks52.jpg","parks","X",0,"yes",0.999831,1,0.608582735061646,"j",1,1,3.5
"473",54,3,30,170.278431372549,0.3,"parks52.jpg","parks","X",0,"yes",0.999831,1,0.608582735061646,"j",1,1,3.5
"474",54,3,31,162.178431372549,0.31,"parks52.jpg","parks","X",0,"yes",0.999831,1,0.608582735061646,"j",1,1,3.5
"475",54,3,32,165.878431372549,0.32,"parks52.jpg","parks","X",0,"yes",0.999831,1,0.608582735061646,"j",1,1,3.5
"476",54,3,33,169.978431372549,0.33,"parks52.jpg","parks","X",0,"yes",0.999831,1,0.608582735061646,"j",1,1,3.5
"477",54,3,34,173.378431372549,0.34,"parks52.jpg","parks","X",0,"yes",0.999831,1,0.608582735061646,"j",1,1,3.5
"478",54,3,35,176.278431372549,0.35,"parks52.jpg","parks","X",0,"yes",0.999831,1,0.608582735061646,"j",1,1,3.5
"479",54,3,36,171.878431372549,0.36,"parks52.jpg","parks","X",0,"yes",0.999831,1,0.608582735061646,"j",1,1,3.5
"480",54,3,37,173.078431372549,0.37,"parks52.jpg","parks","X",0,"yes",0.999831,1,0.608582735061646,"j",1,1,3.5
"481",54,3,38,172.978431372549,0.38,"parks52.jpg","parks","X",0,"yes",0.999831,1,0.608582735061646,"j",1,1,3.5
"482",54,3,39,190.278431372549,0.39,"parks52.jpg","parks","X",0,"yes",0.999831,1,0.608582735061646,"j",1,1,3.5
"483",54,3,40,195.678431372549,0.4,"parks52.jpg","parks","X",0,"yes",0.999831,1,0.608582735061646,"j",1,1,3.5
"484",54,3,41,190.478431372549,0.41,"parks52.jpg","parks","X",0,"yes",0.999831,1,0.608582735061646,"j",1,1,3.5
"485",54,3,42,183.778431372549,0.42,"parks52.jpg","parks","X",0,"yes",0.999831,1,0.608582735061646,"j",1,1,3.5
"486",54,3,43,203.778431372549,0.43,"parks52.jpg","parks","X",0,"yes",0.999831,1,0.608582735061646,"j",1,1,3.5
"487",54,3,44,209.278431372549,0.44,"parks52.jpg","parks","X",0,"yes",0.999831,1,0.608582735061646,"j",1,1,3.5
"488",54,3,45,206.078431372549,0.45,"parks52.jpg","parks","X",0,"yes",0.999831,1,0.608582735061646,"j",1,1,3.5
"489",54,3,46,213.351158645276,0.46,"parks52.jpg","parks","X",0,"yes",0.999831,1,0.608582735061646,"j",1,1,3.5
"490",54,3,47,206.633986928104,0.47,"parks52.jpg","parks","X",0,"yes",0.999831,1,0.608582735061646,"j",1,1,3.5
"491",54,3,48,200.478431372549,0.48,"parks52.jpg","parks","X",0,"yes",0.999831,1,0.608582735061646,"j",1,1,3.5
"492",54,3,49,196.278431372549,0.49,"parks52.jpg","parks","X",0,"yes",0.999831,1,0.608582735061646,"j",1,1,3.5
"493",54,3,50,211.078431372549,0.5,"parks52.jpg","parks","X",0,"yes",0.999831,1,0.608582735061646,"j",1,1,3.5
"494",54,3,51,210.978431372549,0.51,"parks52.jpg","parks","X",0,"yes",0.999831,1,0.608582735061646,"j",1,1,3.5
"495",54,3,52,202.778431372549,0.52,"parks52.jpg","parks","X",0,"yes",0.999831,1,0.608582735061646,"j",1,1,3.5
"496",54,3,53,204.178431372549,0.53,"parks52.jpg","parks","X",0,"yes",0.999831,1,0.608582735061646,"j",1,1,3.5
"497",54,3,54,196.178431372549,0.54,"parks52.jpg","parks","X",0,"yes",0.999831,1,0.608582735061646,"j",1,1,3.5
"498",54,3,55,200.178431372549,0.55,"parks52.jpg","parks","X",0,"yes",0.999831,1,0.608582735061646,"j",1,1,3.5
"499",54,3,56,191.98752228164,0.56,"parks52.jpg","parks","X",0,"yes",0.999831,1,0.608582735061646,"j",1,1,3.5
"500",54,3,57,197.678431372549,0.57,"parks52.jpg","parks","X",0,"yes",0.999831,1,0.608582735061646,"j",1,1,3.5
"501",54,3,58,200.578431372549,0.58,"parks52.jpg","parks","X",0,"yes",0.999831,1,0.608582735061646,"j",1,1,3.5
"502",54,3,59,203.522875816993,0.59,"parks52.jpg","parks","X",0,"yes",0.999831,1,0.608582735061646,"j",1,1,3.5
"503",54,3,60,189.578431372549,0.6,"parks52.jpg","parks","X",0,"yes",0.999831,1,0.608582735061646,"j",1,1,3.5
"504",54,3,61,188.278431372549,0.61,"parks52.jpg","parks","X",0,"yes",0.999831,1,0.608582735061646,"j",1,1,3.5
"505",54,3,62,180.778431372549,0.62,"parks52.jpg","parks","X",0,"yes",0.999831,1,0.608582735061646,"j",1,1,3.5
"506",54,3,63,191.278431372549,0.63,"parks52.jpg","parks","X",0,"yes",0.999831,1,0.608582735061646,"j",1,1,3.5
"507",54,3,64,193.978431372549,0.64,"parks52.jpg","parks","X",0,"yes",0.999831,1,0.608582735061646,"j",1,1,3.5
"508",54,3,65,187.378431372549,0.65,"parks52.jpg","parks","X",0,"yes",0.999831,1,0.608582735061646,"j",1,1,3.5
"509",54,3,66,181.478431372549,0.66,"parks52.jpg","parks","X",0,"yes",0.999831,1,0.608582735061646,"j",1,1,3.5
"510",54,3,67,192.878431372549,0.67,"parks52.jpg","parks","X",0,"yes",0.999831,1,0.608582735061646,"j",1,1,3.5
"511",54,3,68,194.878431372549,0.68,"parks52.jpg","parks","X",0,"yes",0.999831,1,0.608582735061646,"j",1,1,3.5
"512",54,3,69,178.178431372549,0.69,"parks52.jpg","parks","X",0,"yes",0.999831,1,0.608582735061646,"j",1,1,3.5
"513",54,3,70,185.678431372549,0.7,"parks52.jpg","parks","X",0,"yes",0.999831,1,0.608582735061646,"j",1,1,3.5
"514",54,3,71,177.678431372549,0.71,"parks52.jpg","parks","X",0,"yes",0.999831,1,0.608582735061646,"j",1,1,3.5
"515",54,3,72,180.578431372549,0.72,"parks52.jpg","parks","X",0,"yes",0.999831,1,0.608582735061646,"j",1,1,3.5
"516",54,3,73,176.878431372549,0.73,"parks52.jpg","parks","X",0,"yes",0.999831,1,0.608582735061646,"j",1,1,3.5
"517",54,3,74,182.178431372549,0.74,"parks52.jpg","parks","X",0,"yes",0.999831,1,0.608582735061646,"j",1,1,3.5
"518",54,3,75,184.078431372549,0.75,"parks52.jpg","parks","X",0,"yes",0.999831,1,0.608582735061646,"j",1,1,3.5
"519",54,3,76,176.478431372549,0.76,"parks52.jpg","parks","X",0,"yes",0.999831,1,0.608582735061646,"j",1,1,3.5
"520",54,3,77,185.478431372549,0.77,"parks52.jpg","parks","X",0,"yes",0.999831,1,0.608582735061646,"j",1,1,3.5
"521",54,3,78,180.978431372549,0.78,"parks52.jpg","parks","X",0,"yes",0.999831,1,0.608582735061646,"j",1,1,3.5
"522",54,3,79,195.978431372549,0.79,"parks52.jpg","parks","X",0,"yes",0.999831,1,0.608582735061646,"j",1,1,3.5
"523",54,3,80,195.978431372549,0.8,"parks52.jpg","parks","X",0,"yes",0.999831,1,0.608582735061646,"j",1,1,3.5
"524",54,3,81,186.678431372549,0.81,"parks52.jpg","parks","X",0,"yes",0.999831,1,0.608582735061646,"j",1,1,3.5
"525",54,3,82,187.878431372549,0.82,"parks52.jpg","parks","X",0,"yes",0.999831,1,0.608582735061646,"j",1,1,3.5
"526",54,3,83,181.578431372549,0.83,"parks52.jpg","parks","X",0,"yes",0.999831,1,0.608582735061646,"j",1,1,3.5
"527",54,3,84,194.478431372549,0.84,"parks52.jpg","parks","X",0,"yes",0.999831,1,0.608582735061646,"j",1,1,3.5
"528",54,3,85,193.678431372549,0.85,"parks52.jpg","parks","X",0,"yes",0.999831,1,0.608582735061646,"j",1,1,3.5
"529",54,3,86,190.278431372549,0.86,"parks52.jpg","parks","X",0,"yes",0.999831,1,0.608582735061646,"j",1,1,3.5
"530",54,3,87,182.078431372549,0.87,"parks52.jpg","parks","X",0,"yes",0.999831,1,0.608582735061646,"j",1,1,3.5
"531",54,3,88,177.678431372549,0.88,"parks52.jpg","parks","X",0,"yes",0.999831,1,0.608582735061646,"j",1,1,3.5
"532",54,3,89,182.478431372549,0.89,"parks52.jpg","parks","X",0,"yes",0.999831,1,0.608582735061646,"j",1,1,3.5
"533",54,3,90,183.878431372549,0.9,"parks52.jpg","parks","X",0,"yes",0.999831,1,0.608582735061646,"j",1,1,3.5
"534",54,3,91,181.578431372549,0.91,"parks52.jpg","parks","X",0,"yes",0.999831,1,0.608582735061646,"j",1,1,3.5
"535",54,3,92,175.278431372549,0.92,"parks52.jpg","parks","X",0,"yes",0.999831,1,0.608582735061646,"j",1,1,3.5
"536",54,3,93,185.169340463458,0.93,"parks52.jpg","parks","X",0,"yes",0.999831,1,0.608582735061646,"j",1,1,3.5
"537",54,3,94,177.522875816993,0.94,"parks52.jpg","parks","X",0,"yes",0.999831,1,0.608582735061646,"j",1,1,3.5
"538",54,3,95,177.378431372549,0.95,"parks52.jpg","parks","X",0,"yes",0.999831,1,0.608582735061646,"j",1,1,3.5
"539",54,3,96,174.678431372549,0.96,"parks52.jpg","parks","X",0,"yes",0.999831,1,0.608582735061646,"j",1,1,3.5
"540",54,3,97,183.978431372549,0.97,"parks52.jpg","parks","X",0,"yes",0.999831,1,0.608582735061646,"j",1,1,3.5
"541",54,3,98,187.578431372549,0.98,"parks52.jpg","parks","X",0,"yes",0.999831,1,0.608582735061646,"j",1,1,3.5
"542",54,3,99,192.278431372549,0.99,"parks52.jpg","parks","X",0,"yes",0.999831,1,0.608582735061646,"j",1,1,3.5
"543",54,3,100,193.478431372549,1,"parks52.jpg","parks","X",0,"yes",0.999831,1,0.608582735061646,"j",1,1,3.5
"544",54,3,101,188.078431372549,1.01,"parks52.jpg","parks","X",0,"yes",0.999831,1,0.608582735061646,"j",1,1,3.5
"545",54,3,102,172.978431372549,1.02,"parks52.jpg","parks","X",0,"yes",0.999831,1,0.608582735061646,"j",1,1,3.5
"546",54,3,103,178.078431372549,1.03,"parks52.jpg","parks","X",0,"yes",0.999831,1,0.608582735061646,"j",1,1,3.5
"547",54,3,104,183.678431372549,1.04,"parks52.jpg","parks","X",0,"yes",0.999831,1,0.608582735061646,"j",1,1,3.5
"548",54,3,105,180.478431372549,1.05,"parks52.jpg","parks","X",0,"yes",0.999831,1,0.608582735061646,"j",1,1,3.5
"549",54,3,106,182.478431372549,1.06,"parks52.jpg","parks","X",0,"yes",0.999831,1,0.608582735061646,"j",1,1,3.5
"550",54,3,107,182.978431372549,1.07,"parks52.jpg","parks","X",0,"yes",0.999831,1,0.608582735061646,"j",1,1,3.5
"551",54,3,108,173.378431372549,1.08,"parks52.jpg","parks","X",0,"yes",0.999831,1,0.608582735061646,"j",1,1,3.5
"552",54,3,109,167.678431372549,1.09,"parks52.jpg","parks","X",0,"yes",0.999831,1,0.608582735061646,"j",1,1,3.5
"553",54,3,110,161.978431372549,1.1,"parks52.jpg","parks","X",0,"yes",0.999831,1,0.608582735061646,"j",1,1,3.5
"554",54,3,111,174.178431372549,1.11,"parks52.jpg","parks","X",0,"yes",0.999831,1,0.608582735061646,"j",1,1,3.5
"555",54,3,112,170.896613190731,1.12,"parks52.jpg","parks","X",0,"yes",0.999831,1,0.608582735061646,"j",1,1,3.5
"556",54,3,113,158.978431372549,1.13,"parks52.jpg","parks","X",0,"yes",0.999831,1,0.608582735061646,"j",1,1,3.5
"557",54,3,114,161.578431372549,1.14,"parks52.jpg","parks","X",0,"yes",0.999831,1,0.608582735061646,"j",1,1,3.5
"558",54,3,115,168.778431372549,1.15,"parks52.jpg","parks","X",0,"yes",0.999831,1,0.608582735061646,"j",1,1,3.5
"559",54,3,116,167.978431372549,1.16,"parks52.jpg","parks","X",0,"yes",0.999831,1,0.608582735061646,"j",1,1,3.5
"560",54,3,117,183.078431372549,1.17,"parks52.jpg","parks","X",0,"yes",0.999831,1,0.608582735061646,"j",1,1,3.5
"561",54,3,118,162.978431372549,1.18,"parks52.jpg","parks","X",0,"yes",0.999831,1,0.608582735061646,"j",1,1,3.5
"562",54,3,119,167.411764705882,1.19,"parks52.jpg","parks","X",0,"yes",0.999831,1,0.608582735061646,"j",1,1,3.5
"563",54,3,120,166.678431372549,1.2,"parks52.jpg","parks","X",0,"yes",0.999831,1,0.608582735061646,"j",1,1,3.5
"564",54,3,121,165.878431372549,1.21,"parks52.jpg","parks","X",0,"yes",0.999831,1,0.608582735061646,"j",1,1,3.5
"565",54,3,122,160.478431372549,1.22,"parks52.jpg","parks","X",0,"yes",0.999831,1,0.608582735061646,"j",1,1,3.5
"566",54,3,123,149.578431372549,1.23,"parks52.jpg","parks","X",0,"yes",0.999831,1,0.608582735061646,"j",1,1,3.5
"567",54,3,124,164.078431372549,1.24,"parks52.jpg","parks","X",0,"yes",0.999831,1,0.608582735061646,"j",1,1,3.5
"568",54,3,125,161.678431372549,1.25,"parks52.jpg","parks","X",0,"yes",0.999831,1,0.608582735061646,"j",1,1,3.5
"569",54,3,126,156.478431372549,1.26,"parks52.jpg","parks","X",0,"yes",0.999831,1,0.608582735061646,"j",1,1,3.5
"570",54,3,127,160.178431372549,1.27,"parks52.jpg","parks","X",0,"yes",0.999831,1,0.608582735061646,"j",1,1,3.5
"571",54,3,128,159.078431372549,1.28,"parks52.jpg","parks","X",0,"yes",0.999831,1,0.608582735061646,"j",1,1,3.5
"572",54,3,129,155.733487552324,1.29,"parks52.jpg","parks","X",0,"yes",0.999831,1,0.608582735061646,"j",1,1,3.5
"573",54,3,130,151.608393919365,1.3,"parks52.jpg","parks","X",0,"yes",0.999831,1,0.608582735061646,"j",1,1,3.5
"574",54,3,131,147.52599691562,1.31,"parks52.jpg","parks","X",0,"yes",0.999831,1,0.608582735061646,"j",1,1,3.5
"575",54,3,132,143.443599911875,1.32,"parks52.jpg","parks","X",0,"yes",0.999831,1,0.608582735061646,"j",1,1,3.5
"576",54,3,133,139.361202908129,1.33,"parks52.jpg","parks","X",0,"yes",0.999831,1,0.608582735061646,"j",1,1,3.5
"577",54,3,134,135.278805904384,1.34,"parks52.jpg","parks","X",0,"yes",0.999831,1,0.608582735061646,"j",1,1,3.5
"578",54,3,135,131.196408900639,1.35,"parks52.jpg","parks","X",0,"yes",0.999831,1,0.608582735061646,"j",1,1,3.5
"579",54,3,136,127.114011896894,1.36,"parks52.jpg","parks","X",0,"yes",0.999831,1,0.608582735061646,"j",1,1,3.5
"580",54,3,137,123.031614893148,1.37,"parks52.jpg","parks","X",0,"yes",0.999831,1,0.608582735061646,"j",1,1,3.5
"581",54,3,138,118.949217889403,1.38,"parks52.jpg","parks","X",0,"yes",0.999831,1,0.608582735061646,"j",1,1,3.5
"582",54,3,139,114.866820885658,1.39,"parks52.jpg","parks","X",0,"yes",0.999831,1,0.608582735061646,"j",1,1,3.5
"583",54,3,140,110.784423881912,1.4,"parks52.jpg","parks","X",0,"yes",0.999831,1,0.608582735061646,"j",1,1,3.5
"584",54,3,141,106.702026878167,1.41,"parks52.jpg","parks","X",0,"yes",0.999831,1,0.608582735061646,"j",1,1,3.5
"585",54,3,142,102.619629874422,1.42,"parks52.jpg","parks","X",0,"yes",0.999831,1,0.608582735061646,"j",1,1,3.5
"586",54,3,143,98.5372328706763,1.43,"parks52.jpg","parks","X",0,"yes",0.999831,1,0.608582735061646,"j",1,1,3.5
"587",54,3,144,94.454835866931,1.44,"parks52.jpg","parks","X",0,"yes",0.999831,1,0.608582735061646,"j",1,1,3.5
"588",54,3,145,90.3724388631856,1.45,"parks52.jpg","parks","X",0,"yes",0.999831,1,0.608582735061646,"j",1,1,3.5
"589",54,3,146,86.2900418594403,1.46,"parks52.jpg","parks","X",0,"yes",0.999831,1,0.608582735061646,"j",1,1,3.5
"590",54,3,147,82.207644855695,1.47,"parks52.jpg","parks","X",0,"yes",0.999831,1,0.608582735061646,"j",1,1,3.5
"591",54,3,148,78.1252478519497,1.48,"parks52.jpg","parks","X",0,"yes",0.999831,1,0.608582735061646,"j",1,1,3.5
"592",54,3,149,74.0428508482044,1.49,"parks52.jpg","parks","X",0,"yes",0.999831,1,0.608582735061646,"j",1,1,3.5
"593",54,3,150,69.960453844459,1.5,"parks52.jpg","parks","X",0,"yes",0.999831,1,0.608582735061646,"j",1,1,3.5
"594",54,3,151,65.8780568407138,1.51,"parks52.jpg","parks","X",0,"yes",0.999831,1,0.608582735061646,"j",1,1,3.5
"595",54,3,152,61.7956598369684,1.52,"parks52.jpg","parks","X",0,"yes",0.999831,1,0.608582735061646,"j",1,1,3.5
"596",54,3,153,57.7132628332231,1.53,"parks52.jpg","parks","X",0,"yes",0.999831,1,0.608582735061646,"j",1,1,3.5
"597",54,3,154,53.6308658294778,1.54,"parks52.jpg","parks","X",0,"yes",0.999831,1,0.608582735061646,"j",1,1,3.5
"598",54,3,155,49.5484688257325,1.55,"parks52.jpg","parks","X",0,"yes",0.999831,1,0.608582735061646,"j",1,1,3.5
"599",54,3,156,45.4660718219872,1.56,"parks52.jpg","parks","X",0,"yes",0.999831,1,0.608582735061646,"j",1,1,3.5
"600",54,3,157,41.3836748182418,1.57,"parks52.jpg","parks","X",0,"yes",0.999831,1,0.608582735061646,"j",1,1,3.5
"601",54,3,158,37.3012778144965,1.58,"parks52.jpg","parks","X",0,"yes",0.999831,1,0.608582735061646,"j",1,1,3.5
"602",54,3,159,33.2188808107512,1.59,"parks52.jpg","parks","X",0,"yes",0.999831,1,0.608582735061646,"j",1,1,3.5
"603",54,3,160,29.1364838070059,1.6,"parks52.jpg","parks","X",0,"yes",0.999831,1,0.608582735061646,"j",1,1,3.5
"604",54,3,161,25.0540868032605,1.61,"parks52.jpg","parks","X",0,"yes",0.999831,1,0.608582735061646,"j",1,1,3.5
"605",54,3,162,20.9716897995153,1.62,"parks52.jpg","parks","X",0,"yes",0.999831,1,0.608582735061646,"j",1,1,3.5
"606",54,3,163,16.8892927957699,1.63,"parks52.jpg","parks","X",0,"yes",0.999831,1,0.608582735061646,"j",1,1,3.5
"607",54,3,164,12.8068957920246,1.64,"parks52.jpg","parks","X",0,"yes",0.999831,1,0.608582735061646,"j",1,1,3.5
"608",54,3,165,8.72449878827929,1.65,"parks52.jpg","parks","X",0,"yes",0.999831,1,0.608582735061646,"j",1,1,3.5
"609",54,3,166,4.64210178453395,1.66,"parks52.jpg","parks","X",0,"yes",0.999831,1,0.608582735061646,"j",1,1,3.5
"610",54,3,167,0.559704780788661,1.67,"parks52.jpg","parks","X",0,"yes",0.999831,1,0.608582735061646,"j",1,1,3.5
"611",54,3,168,-3.52269222295668,1.68,"parks52.jpg","parks","X",0,"yes",0.999831,1,0.608582735061646,"j",1,1,3.5
"612",54,3,169,-7.60508922670199,1.69,"parks52.jpg","parks","X",0,"yes",0.999831,1,0.608582735061646,"j",1,1,3.5
"613",54,3,170,-11.6874862304473,1.7,"parks52.jpg","parks","X",0,"yes",0.999831,1,0.608582735061646,"j",1,1,3.5
"614",54,3,171,-15.7698832341926,1.71,"parks52.jpg","parks","X",0,"yes",0.999831,1,0.608582735061646,"j",1,1,3.5
"615",54,3,172,-19.8522802379379,1.72,"parks52.jpg","parks","X",0,"yes",0.999831,1,0.608582735061646,"j",1,1,3.5
"616",54,3,173,-23.9346772416833,1.73,"parks52.jpg","parks","X",0,"yes",0.999831,1,0.608582735061646,"j",1,1,3.5
"617",54,3,174,-28.0170742454286,1.74,"parks52.jpg","parks","X",0,"yes",0.999831,1,0.608582735061646,"j",1,1,3.5
"618",54,3,175,-32.0994712491739,1.75,"parks52.jpg","parks","X",0,"yes",0.999831,1,0.608582735061646,"j",1,1,3.5
"619",54,3,176,-36.1818682529192,1.76,"parks52.jpg","parks","X",0,"yes",0.999831,1,0.608582735061646,"j",1,1,3.5
"620",54,3,177,-40.2642652566645,1.77,"parks52.jpg","parks","X",0,"yes",0.999831,1,0.608582735061646,"j",1,1,3.5
"621",54,3,178,-44.3466622604099,1.78,"parks52.jpg","parks","X",0,"yes",0.999831,1,0.608582735061646,"j",1,1,3.5
"622",54,3,179,-48.4290592641552,1.79,"parks52.jpg","parks","X",0,"yes",0.999831,1,0.608582735061646,"j",1,1,3.5
"623",54,3,180,-52.5114562679005,1.8,"parks52.jpg","parks","X",0,"yes",0.999831,1,0.608582735061646,"j",1,1,3.5
"624",54,3,181,-56.5938532716458,1.81,"parks52.jpg","parks","X",0,"yes",0.999831,1,0.608582735061646,"j",1,1,3.5
"625",54,3,182,-60.6762502753911,1.82,"parks52.jpg","parks","X",0,"yes",0.999831,1,0.608582735061646,"j",1,1,3.5
"626",54,3,183,-60.721568627451,1.83,"parks52.jpg","parks","X",0,"yes",0.999831,1,0.608582735061646,"j",1,1,3.5
"627",54,3,184,-58.321568627451,1.84,"parks52.jpg","parks","X",0,"yes",0.999831,1,0.608582735061646,"j",1,1,3.5
"628",54,3,185,-54.5215686274511,1.85,"parks52.jpg","parks","X",0,"yes",0.999831,1,0.608582735061646,"j",1,1,3.5
"629",54,3,186,-47.721568627451,1.86,"parks52.jpg","parks","X",0,"yes",0.999831,1,0.608582735061646,"j",1,1,3.5
"630",54,3,187,-33.1033868092692,1.87,"parks52.jpg","parks","X",0,"yes",0.999831,1,0.608582735061646,"j",1,1,3.5
"631",54,3,188,-23.3660130718955,1.88,"parks52.jpg","parks","X",0,"yes",0.999831,1,0.608582735061646,"j",1,1,3.5
"632",54,3,189,-12.2215686274511,1.89,"parks52.jpg","parks","X",0,"yes",0.999831,1,0.608582735061646,"j",1,1,3.5
"633",54,3,190,-3.42156862745105,1.9,"parks52.jpg","parks","X",0,"yes",0.999831,1,0.608582735061646,"j",1,1,3.5
"634",54,3,191,8.47843137254895,1.91,"parks52.jpg","parks","X",0,"yes",0.999831,1,0.608582735061646,"j",1,1,3.5
"635",54,3,192,-1.72156862745105,1.92,"parks52.jpg","parks","X",0,"yes",0.999831,1,0.608582735061646,"j",1,1,3.5
"636",54,3,193,11.0784313725489,1.93,"parks52.jpg","parks","X",0,"yes",0.999831,1,0.608582735061646,"j",1,1,3.5
"637",54,3,194,19.878431372549,1.94,"parks52.jpg","parks","X",0,"yes",0.999831,1,0.608582735061646,"j",1,1,3.5
"638",54,3,195,31.578431372549,1.95,"parks52.jpg","parks","X",0,"yes",0.999831,1,0.608582735061646,"j",1,1,3.5
"639",54,3,196,44.3784313725489,1.96,"parks52.jpg","parks","X",0,"yes",0.999831,1,0.608582735061646,"j",1,1,3.5
"640",54,3,197,59.678431372549,1.97,"parks52.jpg","parks","X",0,"yes",0.999831,1,0.608582735061646,"j",1,1,3.5
"641",54,3,198,66.978431372549,1.98,"parks52.jpg","parks","X",0,"yes",0.999831,1,0.608582735061646,"j",1,1,3.5
"642",54,3,199,82.378431372549,1.99,"parks52.jpg","parks","X",0,"yes",0.999831,1,0.608582735061646,"j",1,1,3.5
"643",54,3,200,91.078431372549,2,"parks52.jpg","parks","X",0,"yes",0.999831,1,0.608582735061646,"j",1,1,3.5
"644",54,3,201,98.7450980392156,2.01,"parks52.jpg","parks","X",0,"yes",0.999831,1,0.608582735061646,"j",1,1,3.5
"645",54,3,202,92.9875222816399,2.02,"parks52.jpg","parks","X",0,"yes",0.999831,1,0.608582735061646,"j",1,1,3.5
"646",54,3,203,94.4117647058823,2.03,"parks52.jpg","parks","X",0,"yes",0.999831,1,0.608582735061646,"j",1,1,3.5
"647",54,3,204,90.169340463458,2.04,"parks52.jpg","parks","X",0,"yes",0.999831,1,0.608582735061646,"j",1,1,3.5
"648",54,3,205,74.078431372549,2.05,"parks52.jpg","parks","X",0,"yes",0.999831,1,0.608582735061646,"j",1,1,3.5
"649",54,3,206,74.169340463458,2.06,"parks52.jpg","parks","X",0,"yes",0.999831,1,0.608582735061646,"j",1,1,3.5
"650",54,3,207,66.4117647058823,2.07,"parks52.jpg","parks","X",0,"yes",0.999831,1,0.608582735061646,"j",1,1,3.5
"651",54,3,208,60.8057040998217,2.08,"parks52.jpg","parks","X",0,"yes",0.999831,1,0.608582735061646,"j",1,1,3.5
"652",54,3,209,53.078431372549,2.09,"parks52.jpg","parks","X",0,"yes",0.999831,1,0.608582735061646,"j",1,1,3.5
"653",54,3,210,46.8966131907308,2.1,"parks52.jpg","parks","X",0,"yes",0.999831,1,0.608582735061646,"j",1,1,3.5
"654",54,3,211,33.8562091503267,2.11,"parks52.jpg","parks","X",0,"yes",0.999831,1,0.608582735061646,"j",1,1,3.5
"655",54,3,212,26.7261586452762,2.12,"parks52.jpg","parks","X",0,"yes",0.999831,1,0.608582735061646,"j",1,1,3.5
"656",54,3,213,24.5248599439775,2.13,"parks52.jpg","parks","X",0,"yes",0.999831,1,0.608582735061646,"j",1,1,3.5
"657",54,3,214,22.3195028011204,2.14,"parks52.jpg","parks","X",0,"yes",0.999831,1,0.608582735061646,"j",1,1,3.5
"658",54,3,215,19.9980742296918,2.15,"parks52.jpg","parks","X",0,"yes",0.999831,1,0.608582735061646,"j",1,1,3.5
"659",54,3,216,17.6766456582632,2.16,"parks52.jpg","parks","X",0,"yes",0.999831,1,0.608582735061646,"j",1,1,3.5
"660",54,3,217,15.3552170868347,2.17,"parks52.jpg","parks","X",0,"yes",0.999831,1,0.608582735061646,"j",1,1,3.5
"661",54,3,218,13.0337885154061,2.18,"parks52.jpg","parks","X",0,"yes",0.999831,1,0.608582735061646,"j",1,1,3.5
"662",54,3,219,10.7123599439775,2.19,"parks52.jpg","parks","X",0,"yes",0.999831,1,0.608582735061646,"j",1,1,3.5
"663",54,3,220,8.39093137254895,2.2,"parks52.jpg","parks","X",0,"yes",0.999831,1,0.608582735061646,"j",1,1,3.5
"664",54,3,221,6.06950280112037,2.21,"parks52.jpg","parks","X",0,"yes",0.999831,1,0.608582735061646,"j",1,1,3.5
"665",54,3,222,3.74807422969182,2.22,"parks52.jpg","parks","X",0,"yes",0.999831,1,0.608582735061646,"j",1,1,3.5
"666",54,3,223,1.42664565826321,2.23,"parks52.jpg","parks","X",0,"yes",0.999831,1,0.608582735061646,"j",1,1,3.5
"667",54,3,224,-0.894782913165318,2.24,"parks52.jpg","parks","X",0,"yes",0.999831,1,0.608582735061646,"j",1,1,3.5
"668",54,3,225,-3.33228291316536,2.25,"parks52.jpg","parks","X",0,"yes",0.999831,1,0.608582735061646,"j",1,1,3.5
"669",54,3,226,-5.65371148459389,2.26,"parks52.jpg","parks","X",0,"yes",0.999831,1,0.608582735061646,"j",1,1,3.5
"670",54,3,227,-7.97514005602249,2.27,"parks52.jpg","parks","X",0,"yes",0.999831,1,0.608582735061646,"j",1,1,3.5
"671",54,3,228,-10.2965686274511,2.28,"parks52.jpg","parks","X",0,"yes",0.999831,1,0.608582735061646,"j",1,1,3.5
"672",54,3,229,-12.6179971988796,2.29,"parks52.jpg","parks","X",0,"yes",0.999831,1,0.608582735061646,"j",1,1,3.5
"673",54,3,230,-14.9394257703082,2.3,"parks52.jpg","parks","X",0,"yes",0.999831,1,0.608582735061646,"j",1,1,3.5
"674",54,3,231,-17.2608543417367,2.31,"parks52.jpg","parks","X",0,"yes",0.999831,1,0.608582735061646,"j",1,1,3.5
"675",54,3,232,-19.5822829131653,2.32,"parks52.jpg","parks","X",0,"yes",0.999831,1,0.608582735061646,"j",1,1,3.5
"676",54,3,233,-21.9037114845939,2.33,"parks52.jpg","parks","X",0,"yes",0.999831,1,0.608582735061646,"j",1,1,3.5
"677",54,3,234,-24.2251400560225,2.34,"parks52.jpg","parks","X",0,"yes",0.999831,1,0.608582735061646,"j",1,1,3.5
"678",54,3,235,-26.5465686274511,2.35,"parks52.jpg","parks","X",0,"yes",0.999831,1,0.608582735061646,"j",1,1,3.5
"679",54,3,236,-28.8679971988796,2.36,"parks52.jpg","parks","X",0,"yes",0.999831,1,0.608582735061646,"j",1,1,3.5
"680",54,3,237,-31.1894257703082,2.37,"parks52.jpg","parks","X",0,"yes",0.999831,1,0.608582735061646,"j",1,1,3.5
"681",54,3,238,-33.5108543417368,2.38,"parks52.jpg","parks","X",0,"yes",0.999831,1,0.608582735061646,"j",1,1,3.5
"682",54,3,239,-35.7162114845939,2.39,"parks52.jpg","parks","X",0,"yes",0.999831,1,0.608582735061646,"j",1,1,3.5
"683",54,3,240,-36.0894257703082,2.4,"parks52.jpg","parks","X",0,"yes",0.999831,1,0.608582735061646,"j",1,1,3.5
"684",54,3,241,-29.121568627451,2.41,"parks52.jpg","parks","X",0,"yes",0.999831,1,0.608582735061646,"j",1,1,3.5
"685",54,3,242,-26.0215686274511,2.42,"parks52.jpg","parks","X",0,"yes",0.999831,1,0.608582735061646,"j",1,1,3.5
"686",54,3,243,-29.421568627451,2.43,"parks52.jpg","parks","X",0,"yes",0.999831,1,0.608582735061646,"j",1,1,3.5
"687",54,3,244,-32.721568627451,2.44,"parks52.jpg","parks","X",0,"yes",0.999831,1,0.608582735061646,"j",1,1,3.5
"688",54,3,245,-30.721568627451,2.45,"parks52.jpg","parks","X",0,"yes",0.999831,1,0.608582735061646,"j",1,1,3.5
"689",54,3,246,-16.7215686274511,2.46,"parks52.jpg","parks","X",0,"yes",0.999831,1,0.608582735061646,"j",1,1,3.5
"690",54,3,247,-22.5215686274511,2.47,"parks52.jpg","parks","X",0,"yes",0.999831,1,0.608582735061646,"j",1,1,3.5
"691",54,3,248,-12.0215686274511,2.48,"parks52.jpg","parks","X",0,"yes",0.999831,1,0.608582735061646,"j",1,1,3.5
"692",54,3,249,-17.321568627451,2.49,"parks52.jpg","parks","X",0,"yes",0.999831,1,0.608582735061646,"j",1,1,3.5
"693",54,3,250,-4.83065953654196,2.5,"parks52.jpg","parks","X",0,"yes",0.999831,1,0.608582735061646,"j",1,1,3.5
"694",54,3,251,-9.3660130718955,2.51,"parks52.jpg","parks","X",0,"yes",0.999831,1,0.608582735061646,"j",1,1,3.5
"695",54,3,252,3.07843137254895,2.52,"parks52.jpg","parks","X",0,"yes",0.999831,1,0.608582735061646,"j",1,1,3.5
"696",54,3,253,10.17730557715,2.53,"parks52.jpg","parks","X",0,"yes",0.999831,1,0.608582735061646,"j",1,1,3.5
"697",54,3,254,10.4440701390688,2.54,"parks52.jpg","parks","X",0,"yes",0.999831,1,0.608582735061646,"j",1,1,3.5
"698",54,3,255,9.9154357778353,2.55,"parks52.jpg","parks","X",0,"yes",0.999831,1,0.608582735061646,"j",1,1,3.5
"699",54,3,256,9.41323313466348,2.56,"parks52.jpg","parks","X",0,"yes",0.999831,1,0.608582735061646,"j",1,1,3.5
"700",54,3,257,8.88459877343,2.57,"parks52.jpg","parks","X",0,"yes",0.999831,1,0.608582735061646,"j",1,1,3.5
"701",54,3,258,8.35596441219652,2.58,"parks52.jpg","parks","X",0,"yes",0.999831,1,0.608582735061646,"j",1,1,3.5
"702",54,3,259,7.82733005096304,2.59,"parks52.jpg","parks","X",0,"yes",0.999831,1,0.608582735061646,"j",1,1,3.5
"703",54,3,260,7.29869568972958,2.6,"parks52.jpg","parks","X",0,"yes",0.999831,1,0.608582735061646,"j",1,1,3.5
"704",54,3,261,6.77006132849608,2.61,"parks52.jpg","parks","X",0,"yes",0.999831,1,0.608582735061646,"j",1,1,3.5
"705",54,3,262,6.2414269672626,2.62,"parks52.jpg","parks","X",0,"yes",0.999831,1,0.608582735061646,"j",1,1,3.5
"706",54,3,263,5.71279260602912,2.63,"parks52.jpg","parks","X",0,"yes",0.999831,1,0.608582735061646,"j",1,1,3.5
"707",54,3,264,5.18415824479564,2.64,"parks52.jpg","parks","X",0,"yes",0.999831,1,0.608582735061646,"j",1,1,3.5
"708",54,3,265,4.65552388356218,2.65,"parks52.jpg","parks","X",0,"yes",0.999831,1,0.608582735061646,"j",1,1,3.5
"709",54,3,266,4.12688952232868,2.66,"parks52.jpg","parks","X",0,"yes",0.999831,1,0.608582735061646,"j",1,1,3.5
"710",54,3,267,3.5982551610952,2.67,"parks52.jpg","parks","X",0,"yes",0.999831,1,0.608582735061646,"j",1,1,3.5
"711",54,3,268,3.06962079986172,2.68,"parks52.jpg","parks","X",0,"yes",0.999831,1,0.608582735061646,"j",1,1,3.5
"712",54,3,269,2.54098643862824,2.69,"parks52.jpg","parks","X",0,"yes",0.999831,1,0.608582735061646,"j",1,1,3.5
"713",54,3,270,2.01235207739478,2.7,"parks52.jpg","parks","X",0,"yes",0.999831,1,0.608582735061646,"j",1,1,3.5
"714",54,3,271,1.48371771616128,2.71,"parks52.jpg","parks","X",0,"yes",0.999831,1,0.608582735061646,"j",1,1,3.5
"715",54,3,272,0.955083354927797,2.72,"parks52.jpg","parks","X",0,"yes",0.999831,1,0.608582735061646,"j",1,1,3.5
"716",54,3,273,0.426448993694316,2.73,"parks52.jpg","parks","X",0,"yes",0.999831,1,0.608582735061646,"j",1,1,3.5
"717",54,3,274,-0.102185367539164,2.74,"parks52.jpg","parks","X",0,"yes",0.999831,1,0.608582735061646,"j",1,1,3.5
"718",54,3,275,-0.630819728772622,2.75,"parks52.jpg","parks","X",0,"yes",0.999831,1,0.608582735061646,"j",1,1,3.5
"719",54,3,276,-0.221568627451052,2.76,"parks52.jpg","parks","X",0,"yes",0.999831,1,0.608582735061646,"j",1,1,3.5
"720",54,3,277,-14.9215686274511,2.77,"parks52.jpg","parks","X",0,"yes",0.999831,1,0.608582735061646,"j",1,1,3.5
"721",54,3,278,-17.321568627451,2.78,"parks52.jpg","parks","X",0,"yes",0.999831,1,0.608582735061646,"j",1,1,3.5
"722",54,3,279,-27.321568627451,2.79,"parks52.jpg","parks","X",0,"yes",0.999831,1,0.608582735061646,"j",1,1,3.5
"723",54,3,280,-23.121568627451,2.8,"parks52.jpg","parks","X",0,"yes",0.999831,1,0.608582735061646,"j",1,1,3.5
"724",54,3,281,-11.9215686274511,2.81,"parks52.jpg","parks","X",0,"yes",0.999831,1,0.608582735061646,"j",1,1,3.5
"725",54,3,282,-8.42156862745105,2.82,"parks52.jpg","parks","X",0,"yes",0.999831,1,0.608582735061646,"j",1,1,3.5
"726",54,3,283,-22.0215686274511,2.83,"parks52.jpg","parks","X",0,"yes",0.999831,1,0.608582735061646,"j",1,1,3.5
"727",54,3,284,-23.5215686274511,2.84,"parks52.jpg","parks","X",0,"yes",0.999831,1,0.608582735061646,"j",1,1,3.5
"728",54,3,285,-17.9215686274511,2.85,"parks52.jpg","parks","X",0,"yes",0.999831,1,0.608582735061646,"j",1,1,3.5
"729",54,3,286,-15.2215686274511,2.86,"parks52.jpg","parks","X",0,"yes",0.999831,1,0.608582735061646,"j",1,1,3.5
"730",54,3,287,-7.62156862745105,2.87,"parks52.jpg","parks","X",0,"yes",0.999831,1,0.608582735061646,"j",1,1,3.5
"731",54,3,288,-14.2215686274511,2.88,"parks52.jpg","parks","X",0,"yes",0.999831,1,0.608582735061646,"j",1,1,3.5
"732",54,3,289,-13.4215686274511,2.89,"parks52.jpg","parks","X",0,"yes",0.999831,1,0.608582735061646,"j",1,1,3.5
"733",54,3,290,-13.0215686274511,2.9,"parks52.jpg","parks","X",0,"yes",0.999831,1,0.608582735061646,"j",1,1,3.5
"734",54,3,291,-17.5215686274511,2.91,"parks52.jpg","parks","X",0,"yes",0.999831,1,0.608582735061646,"j",1,1,3.5
"735",54,3,292,-11.4215686274511,2.92,"parks52.jpg","parks","X",0,"yes",0.999831,1,0.608582735061646,"j",1,1,3.5
"736",54,3,293,-15.121568627451,2.93,"parks52.jpg","parks","X",0,"yes",0.999831,1,0.608582735061646,"j",1,1,3.5
"737",54,3,294,-6.22156862745105,2.94,"parks52.jpg","parks","X",0,"yes",0.999831,1,0.608582735061646,"j",1,1,3.5
"738",54,3,295,-10.9215686274511,2.95,"parks52.jpg","parks","X",0,"yes",0.999831,1,0.608582735061646,"j",1,1,3.5
"739",54,3,296,-2.52156862745105,2.96,"parks52.jpg","parks","X",0,"yes",0.999831,1,0.608582735061646,"j",1,1,3.5
"740",54,3,297,9.17843137254895,2.97,"parks52.jpg","parks","X",0,"yes",0.999831,1,0.608582735061646,"j",1,1,3.5
"741",54,3,298,7.77843137254895,2.98,"parks52.jpg","parks","X",0,"yes",0.999831,1,0.608582735061646,"j",1,1,3.5
"742",54,3,299,13.4784313725489,2.99,"parks52.jpg","parks","X",0,"yes",0.999831,1,0.608582735061646,"j",1,1,3.5
"743",54,3,300,14.0784313725489,3,"parks52.jpg","parks","X",0,"yes",0.999831,1,0.608582735061646,"j",1,1,3.5
"744",54,3,301,11.4784313725489,3.01,"parks52.jpg","parks","X",0,"yes",0.999831,1,0.608582735061646,"j",1,1,3.5
"745",54,3,302,27.5784313725489,3.02,"parks52.jpg","parks","X",0,"yes",0.999831,1,0.608582735061646,"j",1,1,3.5
"746",54,3,303,25.7784313725489,3.03,"parks52.jpg","parks","X",0,"yes",0.999831,1,0.608582735061646,"j",1,1,3.5
"747",54,3,304,21.0784313725489,3.04,"parks52.jpg","parks","X",0,"yes",0.999831,1,0.608582735061646,"j",1,1,3.5
"748",54,3,305,36.8784313725489,3.05,"parks52.jpg","parks","X",0,"yes",0.999831,1,0.608582735061646,"j",1,1,3.5
"749",54,3,306,25.2784313725489,3.06,"parks52.jpg","parks","X",0,"yes",0.999831,1,0.608582735061646,"j",1,1,3.5
"750",54,3,307,34.078431372549,3.07,"parks52.jpg","parks","X",0,"yes",0.999831,1,0.608582735061646,"j",1,1,3.5
"751",54,3,308,31.678431372549,3.08,"parks52.jpg","parks","X",0,"yes",0.999831,1,0.608582735061646,"j",1,1,3.5
"752",54,3,309,44.178431372549,3.09,"parks52.jpg","parks","X",0,"yes",0.999831,1,0.608582735061646,"j",1,1,3.5
"753",54,3,310,38.578431372549,3.1,"parks52.jpg","parks","X",0,"yes",0.999831,1,0.608582735061646,"j",1,1,3.5
"754",54,3,311,43.3784313725489,3.11,"parks52.jpg","parks","X",0,"yes",0.999831,1,0.608582735061646,"j",1,1,3.5
"755",54,3,312,41.3784313725489,3.12,"parks52.jpg","parks","X",0,"yes",0.999831,1,0.608582735061646,"j",1,1,3.5
"756",54,3,313,37.8784313725489,3.13,"parks52.jpg","parks","X",0,"yes",0.999831,1,0.608582735061646,"j",1,1,3.5
"757",54,3,314,44.9784313725489,3.14,"parks52.jpg","parks","X",0,"yes",0.999831,1,0.608582735061646,"j",1,1,3.5
"758",54,3,315,49.4784313725489,3.15,"parks52.jpg","parks","X",0,"yes",0.999831,1,0.608582735061646,"j",1,1,3.5
"759",54,3,316,47.8784313725489,3.16,"parks52.jpg","parks","X",0,"yes",0.999831,1,0.608582735061646,"j",1,1,3.5
"760",54,3,317,41.9784313725489,3.17,"parks52.jpg","parks","X",0,"yes",0.999831,1,0.608582735061646,"j",1,1,3.5
"761",54,3,318,43.678431372549,3.18,"parks52.jpg","parks","X",0,"yes",0.999831,1,0.608582735061646,"j",1,1,3.5
"762",54,3,319,45.8784313725489,3.19,"parks52.jpg","parks","X",0,"yes",0.999831,1,0.608582735061646,"j",1,1,3.5
"763",54,3,320,43.578431372549,3.2,"parks52.jpg","parks","X",0,"yes",0.999831,1,0.608582735061646,"j",1,1,3.5
"764",54,3,321,46.778431372549,3.21,"parks52.jpg","parks","X",0,"yes",0.999831,1,0.608582735061646,"j",1,1,3.5
"765",54,3,322,53.578431372549,3.22,"parks52.jpg","parks","X",0,"yes",0.999831,1,0.608582735061646,"j",1,1,3.5
"766",54,3,323,59.878431372549,3.23,"parks52.jpg","parks","X",0,"yes",0.999831,1,0.608582735061646,"j",1,1,3.5
"767",54,3,324,54.3784313725489,3.24,"parks52.jpg","parks","X",0,"yes",0.999831,1,0.608582735061646,"j",1,1,3.5
"768",54,3,325,59.978431372549,3.25,"parks52.jpg","parks","X",0,"yes",0.999831,1,0.608582735061646,"j",1,1,3.5
"769",54,3,326,60.478431372549,3.26,"parks52.jpg","parks","X",0,"yes",0.999831,1,0.608582735061646,"j",1,1,3.5
"770",54,3,327,63.978431372549,3.27,"parks52.jpg","parks","X",0,"yes",0.999831,1,0.608582735061646,"j",1,1,3.5
"771",54,3,328,64.878431372549,3.28,"parks52.jpg","parks","X",0,"yes",0.999831,1,0.608582735061646,"j",1,1,3.5
"772",54,3,329,61.778431372549,3.29,"parks52.jpg","parks","X",0,"yes",0.999831,1,0.608582735061646,"j",1,1,3.5
"773",54,3,330,73.6784313725489,3.3,"parks52.jpg","parks","X",0,"yes",0.999831,1,0.608582735061646,"j",1,1,3.5
"774",54,3,331,69.978431372549,3.31,"parks52.jpg","parks","X",0,"yes",0.999831,1,0.608582735061646,"j",1,1,3.5
"775",54,3,332,72.478431372549,3.32,"parks52.jpg","parks","X",0,"yes",0.999831,1,0.608582735061646,"j",1,1,3.5
"776",54,3,333,74.278431372549,3.33,"parks52.jpg","parks","X",0,"yes",0.999831,1,0.608582735061646,"j",1,1,3.5
"777",54,3,334,81.078431372549,3.34,"parks52.jpg","parks","X",0,"yes",0.999831,1,0.608582735061646,"j",1,1,3.5
"778",54,3,335,75.278431372549,3.35,"parks52.jpg","parks","X",0,"yes",0.999831,1,0.608582735061646,"j",1,1,3.5
"779",54,3,336,68.6784313725489,3.36,"parks52.jpg","parks","X",0,"yes",0.999831,1,0.608582735061646,"j",1,1,3.5
"780",54,3,337,73.478431372549,3.37,"parks52.jpg","parks","X",0,"yes",0.999831,1,0.608582735061646,"j",1,1,3.5
"781",54,3,338,69.578431372549,3.38,"parks52.jpg","parks","X",0,"yes",0.999831,1,0.608582735061646,"j",1,1,3.5
"782",54,3,339,91.878431372549,3.39,"parks52.jpg","parks","X",0,"yes",0.999831,1,0.608582735061646,"j",1,1,3.5
"783",54,3,340,79.478431372549,3.4,"parks52.jpg","parks","X",0,"yes",0.999831,1,0.608582735061646,"j",1,1,3.5
"784",54,3,341,77.378431372549,3.41,"parks52.jpg","parks","X",0,"yes",0.999831,1,0.608582735061646,"j",1,1,3.5
"785",54,3,342,83.078431372549,3.42,"parks52.jpg","parks","X",0,"yes",0.999831,1,0.608582735061646,"j",1,1,3.5
"786",54,3,343,74.1784313725489,3.43,"parks52.jpg","parks","X",0,"yes",0.999831,1,0.608582735061646,"j",1,1,3.5
"787",54,3,344,75.978431372549,3.44,"parks52.jpg","parks","X",0,"yes",0.999831,1,0.608582735061646,"j",1,1,3.5
"788",54,3,345,72.078431372549,3.45,"parks52.jpg","parks","X",0,"yes",0.999831,1,0.608582735061646,"j",1,1,3.5
"789",54,3,346,69.478431372549,3.46,"parks52.jpg","parks","X",0,"yes",0.999831,1,0.608582735061646,"j",1,1,3.5
"790",54,3,347,70.978431372549,3.47,"parks52.jpg","parks","X",0,"yes",0.999831,1,0.608582735061646,"j",1,1,3.5
"791",54,3,348,73.078431372549,3.48,"parks52.jpg","parks","X",0,"yes",0.999831,1,0.608582735061646,"j",1,1,3.5
"792",54,3,349,73.6784313725489,3.49,"parks52.jpg","parks","X",0,"yes",0.999831,1,0.608582735061646,"j",1,1,3.5
"793",54,3,350,93.9875222816399,3.5,"parks52.jpg","parks","X",0,"yes",0.999831,1,0.608582735061646,"j",1,1,3.5
"794",54,3,351,108.522875816993,3.51,"parks52.jpg","parks","X",0,"yes",0.999831,1,0.608582735061646,"j",1,1,3.5
"795",54,3,352,109.878431372549,3.52,"parks52.jpg","parks","X",0,"yes",0.999831,1,0.608582735061646,"j",1,1,3.5
"796",54,3,353,106.078431372549,3.53,"parks52.jpg","parks","X",0,"yes",0.999831,1,0.608582735061646,"j",1,1,3.5
"797",54,3,354,115.578431372549,3.54,"parks52.jpg","parks","X",0,"yes",0.999831,1,0.608582735061646,"j",1,1,3.5
"798",54,3,355,116.578431372549,3.55,"parks52.jpg","parks","X",0,"yes",0.999831,1,0.608582735061646,"j",1,1,3.5
"799",54,3,356,117.778431372549,3.56,"parks52.jpg","parks","X",0,"yes",0.999831,1,0.608582735061646,"j",1,1,3.5
"800",54,3,357,121.378431372549,3.57,"parks52.jpg","parks","X",0,"yes",0.999831,1,0.608582735061646,"j",1,1,3.5
"801",54,3,358,115.078431372549,3.58,"parks52.jpg","parks","X",0,"yes",0.999831,1,0.608582735061646,"j",1,1,3.5
"802",54,3,359,125.378431372549,3.59,"parks52.jpg","parks","X",0,"yes",0.999831,1,0.608582735061646,"j",1,1,3.5
"803",54,3,360,139.278431372549,3.6,"parks52.jpg","parks","X",0,"yes",0.999831,1,0.608582735061646,"j",1,1,3.5
"804",54,3,361,138.478431372549,3.61,"parks52.jpg","parks","X",0,"yes",0.999831,1,0.608582735061646,"j",1,1,3.5
"805",54,3,362,134.878431372549,3.62,"parks52.jpg","parks","X",0,"yes",0.999831,1,0.608582735061646,"j",1,1,3.5
"806",54,3,363,137.978431372549,3.63,"parks52.jpg","parks","X",0,"yes",0.999831,1,0.608582735061646,"j",1,1,3.5
"807",54,3,364,144.278431372549,3.64,"parks52.jpg","parks","X",0,"yes",0.999831,1,0.608582735061646,"j",1,1,3.5
"808",54,3,365,150.478431372549,3.65,"parks52.jpg","parks","X",0,"yes",0.999831,1,0.608582735061646,"j",1,1,3.5
"809",54,3,366,155.978431372549,3.66,"parks52.jpg","parks","X",0,"yes",0.999831,1,0.608582735061646,"j",1,1,3.5
"810",54,3,367,159.278431372549,3.67,"parks52.jpg","parks","X",0,"yes",0.999831,1,0.608582735061646,"j",1,1,3.5
"811",54,3,368,164.678431372549,3.68,"parks52.jpg","parks","X",0,"yes",0.999831,1,0.608582735061646,"j",1,1,3.5
"812",54,3,369,159.478431372549,3.69,"parks52.jpg","parks","X",0,"yes",0.999831,1,0.608582735061646,"j",1,1,3.5
"813",54,3,370,157.878431372549,3.7,"parks52.jpg","parks","X",0,"yes",0.999831,1,0.608582735061646,"j",1,1,3.5
"814",54,3,371,174.378431372549,3.71,"parks52.jpg","parks","X",0,"yes",0.999831,1,0.608582735061646,"j",1,1,3.5
"815",54,3,372,185.478431372549,3.72,"parks52.jpg","parks","X",0,"yes",0.999831,1,0.608582735061646,"j",1,1,3.5
"816",54,3,373,186.778431372549,3.73,"parks52.jpg","parks","X",0,"yes",0.999831,1,0.608582735061646,"j",1,1,3.5
"817",54,3,374,187.378431372549,3.74,"parks52.jpg","parks","X",0,"yes",0.999831,1,0.608582735061646,"j",1,1,3.5
"818",54,3,375,197.351158645276,3.75,"parks52.jpg","parks","X",0,"yes",0.999831,1,0.608582735061646,"j",1,1,3.5
"819",54,3,376,197.18954248366,3.76,"parks52.jpg","parks","X",0,"yes",0.999831,1,0.608582735061646,"j",1,1,3.5
"820",54,3,377,197.278431372549,3.77,"parks52.jpg","parks","X",0,"yes",0.999831,1,0.608582735061646,"j",1,1,3.5
"821",54,3,378,203.478431372549,3.78,"parks52.jpg","parks","X",0,"yes",0.999831,1,0.608582735061646,"j",1,1,3.5
"822",54,3,379,201.678431372549,3.79,"parks52.jpg","parks","X",0,"yes",0.999831,1,0.608582735061646,"j",1,1,3.5
"823",54,3,380,202.978431372549,3.8,"parks52.jpg","parks","X",0,"yes",0.999831,1,0.608582735061646,"j",1,1,3.5
"824",54,3,381,210.378431372549,3.81,"parks52.jpg","parks","X",0,"yes",0.999831,1,0.608582735061646,"j",1,1,3.5
"825",54,3,382,218.978431372549,3.82,"parks52.jpg","parks","X",0,"yes",0.999831,1,0.608582735061646,"j",1,1,3.5
"826",54,3,383,220.278431372549,3.83,"parks52.jpg","parks","X",0,"yes",0.999831,1,0.608582735061646,"j",1,1,3.5
"827",54,3,384,213.678431372549,3.84,"parks52.jpg","parks","X",0,"yes",0.999831,1,0.608582735061646,"j",1,1,3.5
"828",54,3,385,215.078431372549,3.85,"parks52.jpg","parks","X",0,"yes",0.999831,1,0.608582735061646,"j",1,1,3.5
"829",54,3,386,222.778431372549,3.86,"parks52.jpg","parks","X",0,"yes",0.999831,1,0.608582735061646,"j",1,1,3.5
"830",54,3,387,233.878431372549,3.87,"parks52.jpg","parks","X",0,"yes",0.999831,1,0.608582735061646,"j",1,1,3.5
"831",54,3,388,226.778431372549,3.88,"parks52.jpg","parks","X",0,"yes",0.999831,1,0.608582735061646,"j",1,1,3.5
"832",54,3,389,221.378431372549,3.89,"parks52.jpg","parks","X",0,"yes",0.999831,1,0.608582735061646,"j",1,1,3.5
"833",54,3,390,226.778431372549,3.9,"parks52.jpg","parks","X",0,"yes",0.999831,1,0.608582735061646,"j",1,1,3.5
"834",54,3,391,230.778431372549,3.91,"parks52.jpg","parks","X",0,"yes",0.999831,1,0.608582735061646,"j",1,1,3.5
"835",54,3,392,238.078431372549,3.92,"parks52.jpg","parks","X",0,"yes",0.999831,1,0.608582735061646,"j",1,1,3.5
"836",54,3,393,241.178431372549,3.93,"parks52.jpg","parks","X",0,"yes",0.999831,1,0.608582735061646,"j",1,1,3.5
"837",54,3,394,241.978431372549,3.94,"parks52.jpg","parks","X",0,"yes",0.999831,1,0.608582735061646,"j",1,1,3.5
"838",54,3,395,236.378431372549,3.95,"parks52.jpg","parks","X",0,"yes",0.999831,1,0.608582735061646,"j",1,1,3.5
"839",54,3,396,243.278431372549,3.96,"parks52.jpg","parks","X",0,"yes",0.999831,1,0.608582735061646,"j",1,1,3.5
"840",54,3,397,245.578431372549,3.97,"parks52.jpg","parks","X",0,"yes",0.999831,1,0.608582735061646,"j",1,1,3.5
"841",54,3,398,244.178431372549,3.98,"parks52.jpg","parks","X",0,"yes",0.999831,1,0.608582735061646,"j",1,1,3.5
"842",54,3,399,231.878431372549,3.99,"parks52.jpg","parks","X",0,"yes",0.999831,1,0.608582735061646,"j",1,1,3.5
"843",54,3,400,240.532976827094,4,"parks52.jpg","parks","X",0,"yes",0.999831,1,0.608582735061646,"j",1,1,3.5
"844",54,3,401,246.578431372549,4.01,"parks52.jpg","parks","X",0,"yes",0.999831,1,0.608582735061646,"j",1,1,3.5
"845",54,3,402,246.513963161022,4.02,"parks52.jpg","parks","X",0,"yes",0.999831,1,0.608582735061646,"j",1,1,3.5
"846",54,3,403,245.714795008913,4.03,"parks52.jpg","parks","X",0,"yes",0.999831,1,0.608582735061646,"j",1,1,3.5
"847",54,3,404,240.58110516934,4.04,"parks52.jpg","parks","X",0,"yes",0.999831,1,0.608582735061646,"j",1,1,3.5
"848",54,3,405,235.19073083779,4.05,"parks52.jpg","parks","X",0,"yes",0.999831,1,0.608582735061646,"j",1,1,3.5
"849",54,3,406,230.057040998217,4.06,"parks52.jpg","parks","X",0,"yes",0.999831,1,0.608582735061646,"j",1,1,3.5
"850",54,3,407,225.180035650624,4.07,"parks52.jpg","parks","X",0,"yes",0.999831,1,0.608582735061646,"j",1,1,3.5
"851",54,3,408,220.046345811052,4.08,"parks52.jpg","parks","X",0,"yes",0.999831,1,0.608582735061646,"j",1,1,3.5
"852",54,3,409,214.655971479501,4.09,"parks52.jpg","parks","X",0,"yes",0.999831,1,0.608582735061646,"j",1,1,3.5
"853",54,3,410,209.522281639929,4.1,"parks52.jpg","parks","X",0,"yes",0.999831,1,0.608582735061646,"j",1,1,3.5
"854",54,3,411,204.645276292335,4.11,"parks52.jpg","parks","X",0,"yes",0.999831,1,0.608582735061646,"j",1,1,3.5
"855",54,3,412,199.511586452763,4.12,"parks52.jpg","parks","X",0,"yes",0.999831,1,0.608582735061646,"j",1,1,3.5
"856",54,3,413,194.121212121212,4.13,"parks52.jpg","parks","X",0,"yes",0.999831,1,0.608582735061646,"j",1,1,3.5
"857",54,3,414,188.98752228164,4.14,"parks52.jpg","parks","X",0,"yes",0.999831,1,0.608582735061646,"j",1,1,3.5
"858",54,3,415,184.110516934046,4.15,"parks52.jpg","parks","X",0,"yes",0.999831,1,0.608582735061646,"j",1,1,3.5
"859",54,3,416,178.976827094474,4.16,"parks52.jpg","parks","X",0,"yes",0.999831,1,0.608582735061646,"j",1,1,3.5
"860",54,3,417,173.586452762923,4.17,"parks52.jpg","parks","X",0,"yes",0.999831,1,0.608582735061646,"j",1,1,3.5
"861",54,3,418,168.452762923351,4.18,"parks52.jpg","parks","X",0,"yes",0.999831,1,0.608582735061646,"j",1,1,3.5
"862",54,3,419,163.575757575758,4.19,"parks52.jpg","parks","X",0,"yes",0.999831,1,0.608582735061646,"j",1,1,3.5
"863",54,3,420,158.442067736185,4.2,"parks52.jpg","parks","X",0,"yes",0.999831,1,0.608582735061646,"j",1,1,3.5
"864",54,3,421,155.72208718198,4.21,"parks52.jpg","parks","X",0,"yes",0.999831,1,0.608582735061646,"j",1,1,3.5
"865",54,3,422,176.633986928104,4.22,"parks52.jpg","parks","X",0,"yes",0.999831,1,0.608582735061646,"j",1,1,3.5
"866",54,3,423,173.578431372549,4.23,"parks52.jpg","parks","X",0,"yes",0.999831,1,0.608582735061646,"j",1,1,3.5
"867",54,3,424,180.678431372549,4.24,"parks52.jpg","parks","X",0,"yes",0.999831,1,0.608582735061646,"j",1,1,3.5
"868",54,3,425,187.351158645276,4.25,"parks52.jpg","parks","X",0,"yes",0.999831,1,0.608582735061646,"j",1,1,3.5
"869",54,3,426,187.778431372549,4.26,"parks52.jpg","parks","X",0,"yes",0.999831,1,0.608582735061646,"j",1,1,3.5
"870",54,3,427,178.522875816993,4.27,"parks52.jpg","parks","X",0,"yes",0.999831,1,0.608582735061646,"j",1,1,3.5
"871",54,3,428,173.778431372549,4.28,"parks52.jpg","parks","X",0,"yes",0.999831,1,0.608582735061646,"j",1,1,3.5
"872",54,3,429,160.678431372549,4.29,"parks52.jpg","parks","X",0,"yes",0.999831,1,0.608582735061646,"j",1,1,3.5
"873",54,3,430,178.896613190731,4.3,"parks52.jpg","parks","X",0,"yes",0.999831,1,0.608582735061646,"j",1,1,3.5
"874",54,3,431,171.633986928104,4.31,"parks52.jpg","parks","X",0,"yes",0.999831,1,0.608582735061646,"j",1,1,3.5
"875",54,3,432,163.278431372549,4.32,"parks52.jpg","parks","X",0,"yes",0.999831,1,0.608582735061646,"j",1,1,3.5
"876",54,3,433,180.278431372549,4.33,"parks52.jpg","parks","X",0,"yes",0.999831,1,0.608582735061646,"j",1,1,3.5
"877",54,3,434,188.442067736185,4.34,"parks52.jpg","parks","X",0,"yes",0.999831,1,0.608582735061646,"j",1,1,3.5
"878",54,3,435,194.967320261438,4.35,"parks52.jpg","parks","X",0,"yes",0.999831,1,0.608582735061646,"j",1,1,3.5
"879",54,3,436,179.378431372549,4.36,"parks52.jpg","parks","X",0,"yes",0.999831,1,0.608582735061646,"j",1,1,3.5
"880",54,3,437,189.478431372549,4.37,"parks52.jpg","parks","X",0,"yes",0.999831,1,0.608582735061646,"j",1,1,3.5
"881",54,3,438,192.078431372549,4.38,"parks52.jpg","parks","X",0,"yes",0.999831,1,0.608582735061646,"j",1,1,3.5
"882",54,3,439,179.078431372549,4.39,"parks52.jpg","parks","X",0,"yes",0.999831,1,0.608582735061646,"j",1,1,3.5
"883",54,3,440,177.678431372549,4.4,"parks52.jpg","parks","X",0,"yes",0.999831,1,0.608582735061646,"j",1,1,3.5
"884",54,3,441,187.178431372549,4.41,"parks52.jpg","parks","X",0,"yes",0.999831,1,0.608582735061646,"j",1,1,3.5
