"","subject","trial","Timebin","ps.adj","time.adj","img","categ","cond","rep","answer","trialdur","acc","rt","resp","group","block","ITI"
"1",79,81,0,-58.5529411764706,0,"lighthouses22.jpg","lighthouses","X",12,"yes",0.999847,1,0.574605226516724,"k",0,2,2
"2",79,81,1,-21.9529411764706,0.01,"lighthouses22.jpg","lighthouses","X",12,"yes",0.999847,1,0.574605226516724,"k",0,2,2
"3",79,81,2,-1.55294117647061,0.02,"lighthouses22.jpg","lighthouses","X",12,"yes",0.999847,1,0.574605226516724,"k",0,2,2
"4",79,81,3,24.9470588235294,0.03,"lighthouses22.jpg","lighthouses","X",12,"yes",0.999847,1,0.574605226516724,"k",0,2,2
"5",79,81,4,51.6470588235294,0.04,"lighthouses22.jpg","lighthouses","X",12,"yes",0.999847,1,0.574605226516724,"k",0,2,2
"6",79,81,5,70.7470588235294,0.05,"lighthouses22.jpg","lighthouses","X",12,"yes",0.999847,1,0.574605226516724,"k",0,2,2
"7",79,81,6,105.847058823529,0.06,"lighthouses22.jpg","lighthouses","X",12,"yes",0.999847,1,0.574605226516724,"k",0,2,2
"8",79,81,7,120.047058823529,0.07,"lighthouses22.jpg","lighthouses","X",12,"yes",0.999847,1,0.574605226516724,"k",0,2,2
"9",79,81,8,127.747058823529,0.08,"lighthouses22.jpg","lighthouses","X",12,"yes",0.999847,1,0.574605226516724,"k",0,2,2
"10",79,81,9,150.547058823529,0.09,"lighthouses22.jpg","lighthouses","X",12,"yes",0.999847,1,0.574605226516724,"k",0,2,2
"11",79,81,10,162.847058823529,0.1,"lighthouses22.jpg","lighthouses","X",12,"yes",0.999847,1,0.574605226516724,"k",0,2,2
"12",79,81,11,179.747058823529,0.11,"lighthouses22.jpg","lighthouses","X",12,"yes",0.999847,1,0.574605226516724,"k",0,2,2
"13",79,81,12,191.447058823529,0.12,"lighthouses22.jpg","lighthouses","X",12,"yes",0.999847,1,0.574605226516724,"k",0,2,2
"14",79,81,13,212.747058823529,0.13,"lighthouses22.jpg","lighthouses","X",12,"yes",0.999847,1,0.574605226516724,"k",0,2,2
"15",79,81,14,223.947058823529,0.14,"lighthouses22.jpg","lighthouses","X",12,"yes",0.999847,1,0.574605226516724,"k",0,2,2
"16",79,81,15,245.747058823529,0.15,"lighthouses22.jpg","lighthouses","X",12,"yes",0.999847,1,0.574605226516724,"k",0,2,2
"17",79,81,16,242.547058823529,0.16,"lighthouses22.jpg","lighthouses","X",12,"yes",0.999847,1,0.574605226516724,"k",0,2,2
"18",79,81,17,240.247058823529,0.17,"lighthouses22.jpg","lighthouses","X",12,"yes",0.999847,1,0.574605226516724,"k",0,2,2
"19",79,81,18,267.047058823529,0.18,"lighthouses22.jpg","lighthouses","X",12,"yes",0.999847,1,0.574605226516724,"k",0,2,2
"20",79,81,19,275.547058823529,0.19,"lighthouses22.jpg","lighthouses","X",12,"yes",0.999847,1,0.574605226516724,"k",0,2,2
"21",79,81,20,251.447058823529,0.2,"lighthouses22.jpg","lighthouses","X",12,"yes",0.999847,1,0.574605226516724,"k",0,2,2
"22",79,81,21,261.747058823529,0.21,"lighthouses22.jpg","lighthouses","X",12,"yes",0.999847,1,0.574605226516724,"k",0,2,2
"23",79,81,22,262.947058823529,0.22,"lighthouses22.jpg","lighthouses","X",12,"yes",0.999847,1,0.574605226516724,"k",0,2,2
"24",79,81,23,259.447058823529,0.23,"lighthouses22.jpg","lighthouses","X",12,"yes",0.999847,1,0.574605226516724,"k",0,2,2
"25",79,81,24,246.847058823529,0.24,"lighthouses22.jpg","lighthouses","X",12,"yes",0.999847,1,0.574605226516724,"k",0,2,2
"26",79,81,25,224.947058823529,0.25,"lighthouses22.jpg","lighthouses","X",12,"yes",0.999847,1,0.574605226516724,"k",0,2,2
"27",79,81,26,225.847058823529,0.26,"lighthouses22.jpg","lighthouses","X",12,"yes",0.999847,1,0.574605226516724,"k",0,2,2
"28",79,81,27,230.947058823529,0.27,"lighthouses22.jpg","lighthouses","X",12,"yes",0.999847,1,0.574605226516724,"k",0,2,2
"29",79,81,28,222.010695187166,0.28,"lighthouses22.jpg","lighthouses","X",12,"yes",0.999847,1,0.574605226516724,"k",0,2,2
"30",79,81,29,220.980392156863,0.29,"lighthouses22.jpg","lighthouses","X",12,"yes",0.999847,1,0.574605226516724,"k",0,2,2
"31",79,81,30,210.447058823529,0.3,"lighthouses22.jpg","lighthouses","X",12,"yes",0.999847,1,0.574605226516724,"k",0,2,2
"32",79,81,31,215.947058823529,0.31,"lighthouses22.jpg","lighthouses","X",12,"yes",0.999847,1,0.574605226516724,"k",0,2,2
"33",79,81,32,217.247058823529,0.32,"lighthouses22.jpg","lighthouses","X",12,"yes",0.999847,1,0.574605226516724,"k",0,2,2
"34",79,81,33,227.747058823529,0.33,"lighthouses22.jpg","lighthouses","X",12,"yes",0.999847,1,0.574605226516724,"k",0,2,2
"35",79,81,34,211.147058823529,0.34,"lighthouses22.jpg","lighthouses","X",12,"yes",0.999847,1,0.574605226516724,"k",0,2,2
"36",79,81,35,218.147058823529,0.35,"lighthouses22.jpg","lighthouses","X",12,"yes",0.999847,1,0.574605226516724,"k",0,2,2
"37",79,81,36,228.247058823529,0.36,"lighthouses22.jpg","lighthouses","X",12,"yes",0.999847,1,0.574605226516724,"k",0,2,2
"38",79,81,37,235.347058823529,0.37,"lighthouses22.jpg","lighthouses","X",12,"yes",0.999847,1,0.574605226516724,"k",0,2,2
"39",79,81,38,234.647058823529,0.38,"lighthouses22.jpg","lighthouses","X",12,"yes",0.999847,1,0.574605226516724,"k",0,2,2
"40",79,81,39,229.847058823529,0.39,"lighthouses22.jpg","lighthouses","X",12,"yes",0.999847,1,0.574605226516724,"k",0,2,2
"41",79,81,40,233.499232736573,0.4,"lighthouses22.jpg","lighthouses","X",12,"yes",0.999847,1,0.574605226516724,"k",0,2,2
"42",79,81,41,254.451406649616,0.41,"lighthouses22.jpg","lighthouses","X",12,"yes",0.999847,1,0.574605226516724,"k",0,2,2
"43",79,81,42,277.494884910486,0.42,"lighthouses22.jpg","lighthouses","X",12,"yes",0.999847,1,0.574605226516724,"k",0,2,2
"44",79,81,43,300.538363171355,0.43,"lighthouses22.jpg","lighthouses","X",12,"yes",0.999847,1,0.574605226516724,"k",0,2,2
"45",79,81,44,323.251406649616,0.44,"lighthouses22.jpg","lighthouses","X",12,"yes",0.999847,1,0.574605226516724,"k",0,2,2
"46",79,81,45,323.547058823529,0.45,"lighthouses22.jpg","lighthouses","X",12,"yes",0.999847,1,0.574605226516724,"k",0,2,2
"47",79,81,46,329.283422459893,0.46,"lighthouses22.jpg","lighthouses","X",12,"yes",0.999847,1,0.574605226516724,"k",0,2,2
"48",79,81,47,330.535947712418,0.47,"lighthouses22.jpg","lighthouses","X",12,"yes",0.999847,1,0.574605226516724,"k",0,2,2
"49",79,81,48,322.147058823529,0.48,"lighthouses22.jpg","lighthouses","X",12,"yes",0.999847,1,0.574605226516724,"k",0,2,2
"50",79,81,49,313.847058823529,0.49,"lighthouses22.jpg","lighthouses","X",12,"yes",0.999847,1,0.574605226516724,"k",0,2,2
"51",79,81,50,308.647058823529,0.5,"lighthouses22.jpg","lighthouses","X",12,"yes",0.999847,1,0.574605226516724,"k",0,2,2
"52",79,81,51,301.947058823529,0.51,"lighthouses22.jpg","lighthouses","X",12,"yes",0.999847,1,0.574605226516724,"k",0,2,2
"53",79,81,52,293.647058823529,0.52,"lighthouses22.jpg","lighthouses","X",12,"yes",0.999847,1,0.574605226516724,"k",0,2,2
"54",79,81,53,281.247058823529,0.53,"lighthouses22.jpg","lighthouses","X",12,"yes",0.999847,1,0.574605226516724,"k",0,2,2
"55",79,81,54,276.547058823529,0.54,"lighthouses22.jpg","lighthouses","X",12,"yes",0.999847,1,0.574605226516724,"k",0,2,2
"56",79,81,55,265.947058823529,0.55,"lighthouses22.jpg","lighthouses","X",12,"yes",0.999847,1,0.574605226516724,"k",0,2,2
"57",79,81,56,242.010695187166,0.56,"lighthouses22.jpg","lighthouses","X",12,"yes",0.999847,1,0.574605226516724,"k",0,2,2
"58",79,81,57,227.247058823529,0.57,"lighthouses22.jpg","lighthouses","X",12,"yes",0.999847,1,0.574605226516724,"k",0,2,2
"59",79,81,58,216.347058823529,0.58,"lighthouses22.jpg","lighthouses","X",12,"yes",0.999847,1,0.574605226516724,"k",0,2,2
"60",79,81,59,216.535947712418,0.59,"lighthouses22.jpg","lighthouses","X",12,"yes",0.999847,1,0.574605226516724,"k",0,2,2
"61",79,81,60,216.447058823529,0.6,"lighthouses22.jpg","lighthouses","X",12,"yes",0.999847,1,0.574605226516724,"k",0,2,2
"62",79,81,61,203.047058823529,0.61,"lighthouses22.jpg","lighthouses","X",12,"yes",0.999847,1,0.574605226516724,"k",0,2,2
"63",79,81,62,199.247058823529,0.62,"lighthouses22.jpg","lighthouses","X",12,"yes",0.999847,1,0.574605226516724,"k",0,2,2
"64",79,81,63,191.047058823529,0.63,"lighthouses22.jpg","lighthouses","X",12,"yes",0.999847,1,0.574605226516724,"k",0,2,2
"65",79,81,64,189.947058823529,0.64,"lighthouses22.jpg","lighthouses","X",12,"yes",0.999847,1,0.574605226516724,"k",0,2,2
"66",79,81,65,177.247058823529,0.65,"lighthouses22.jpg","lighthouses","X",12,"yes",0.999847,1,0.574605226516724,"k",0,2,2
"67",79,81,66,170.847058823529,0.66,"lighthouses22.jpg","lighthouses","X",12,"yes",0.999847,1,0.574605226516724,"k",0,2,2
"68",79,81,67,173.547058823529,0.67,"lighthouses22.jpg","lighthouses","X",12,"yes",0.999847,1,0.574605226516724,"k",0,2,2
"69",79,81,68,169.647058823529,0.68,"lighthouses22.jpg","lighthouses","X",12,"yes",0.999847,1,0.574605226516724,"k",0,2,2
"70",79,81,69,167.447058823529,0.69,"lighthouses22.jpg","lighthouses","X",12,"yes",0.999847,1,0.574605226516724,"k",0,2,2
"71",79,81,70,163.147058823529,0.7,"lighthouses22.jpg","lighthouses","X",12,"yes",0.999847,1,0.574605226516724,"k",0,2,2
"72",79,81,71,157.647058823529,0.71,"lighthouses22.jpg","lighthouses","X",12,"yes",0.999847,1,0.574605226516724,"k",0,2,2
"73",79,81,72,153.647058823529,0.72,"lighthouses22.jpg","lighthouses","X",12,"yes",0.999847,1,0.574605226516724,"k",0,2,2
"74",79,81,73,150.047058823529,0.73,"lighthouses22.jpg","lighthouses","X",12,"yes",0.999847,1,0.574605226516724,"k",0,2,2
"75",79,81,74,132.747058823529,0.74,"lighthouses22.jpg","lighthouses","X",12,"yes",0.999847,1,0.574605226516724,"k",0,2,2
"76",79,81,75,137.447058823529,0.75,"lighthouses22.jpg","lighthouses","X",12,"yes",0.999847,1,0.574605226516724,"k",0,2,2
"77",79,81,76,133.147058823529,0.76,"lighthouses22.jpg","lighthouses","X",12,"yes",0.999847,1,0.574605226516724,"k",0,2,2
"78",79,81,77,130.347058823529,0.77,"lighthouses22.jpg","lighthouses","X",12,"yes",0.999847,1,0.574605226516724,"k",0,2,2
"79",79,81,78,128.047058823529,0.78,"lighthouses22.jpg","lighthouses","X",12,"yes",0.999847,1,0.574605226516724,"k",0,2,2
"80",79,81,79,118.647058823529,0.79,"lighthouses22.jpg","lighthouses","X",12,"yes",0.999847,1,0.574605226516724,"k",0,2,2
"81",79,81,80,106.647058823529,0.8,"lighthouses22.jpg","lighthouses","X",12,"yes",0.999847,1,0.574605226516724,"k",0,2,2
"82",79,81,81,112.247058823529,0.81,"lighthouses22.jpg","lighthouses","X",12,"yes",0.999847,1,0.574605226516724,"k",0,2,2
"83",79,81,82,118.147058823529,0.82,"lighthouses22.jpg","lighthouses","X",12,"yes",0.999847,1,0.574605226516724,"k",0,2,2
"84",79,81,83,123.347058823529,0.83,"lighthouses22.jpg","lighthouses","X",12,"yes",0.999847,1,0.574605226516724,"k",0,2,2
"85",79,81,84,132.647058823529,0.84,"lighthouses22.jpg","lighthouses","X",12,"yes",0.999847,1,0.574605226516724,"k",0,2,2
"86",79,81,85,132.947058823529,0.85,"lighthouses22.jpg","lighthouses","X",12,"yes",0.999847,1,0.574605226516724,"k",0,2,2
"87",79,81,86,136.747058823529,0.86,"lighthouses22.jpg","lighthouses","X",12,"yes",0.999847,1,0.574605226516724,"k",0,2,2
"88",79,81,87,147.247058823529,0.87,"lighthouses22.jpg","lighthouses","X",12,"yes",0.999847,1,0.574605226516724,"k",0,2,2
"89",79,81,88,141.647058823529,0.88,"lighthouses22.jpg","lighthouses","X",12,"yes",0.999847,1,0.574605226516724,"k",0,2,2
"90",79,81,89,148.147058823529,0.89,"lighthouses22.jpg","lighthouses","X",12,"yes",0.999847,1,0.574605226516724,"k",0,2,2
"91",79,81,90,153.447058823529,0.9,"lighthouses22.jpg","lighthouses","X",12,"yes",0.999847,1,0.574605226516724,"k",0,2,2
"92",79,81,91,142.647058823529,0.91,"lighthouses22.jpg","lighthouses","X",12,"yes",0.999847,1,0.574605226516724,"k",0,2,2
"93",79,81,92,152.647058823529,0.92,"lighthouses22.jpg","lighthouses","X",12,"yes",0.999847,1,0.574605226516724,"k",0,2,2
"94",79,81,93,156.374331550802,0.93,"lighthouses22.jpg","lighthouses","X",12,"yes",0.999847,1,0.574605226516724,"k",0,2,2
"95",79,81,94,159.535947712418,0.94,"lighthouses22.jpg","lighthouses","X",12,"yes",0.999847,1,0.574605226516724,"k",0,2,2
"96",79,81,95,157.347058823529,0.95,"lighthouses22.jpg","lighthouses","X",12,"yes",0.999847,1,0.574605226516724,"k",0,2,2
"97",79,81,96,161.547058823529,0.96,"lighthouses22.jpg","lighthouses","X",12,"yes",0.999847,1,0.574605226516724,"k",0,2,2
"98",79,81,97,165.147058823529,0.97,"lighthouses22.jpg","lighthouses","X",12,"yes",0.999847,1,0.574605226516724,"k",0,2,2
"99",79,81,98,157.847058823529,0.98,"lighthouses22.jpg","lighthouses","X",12,"yes",0.999847,1,0.574605226516724,"k",0,2,2
"100",79,81,99,154.947058823529,0.99,"lighthouses22.jpg","lighthouses","X",12,"yes",0.999847,1,0.574605226516724,"k",0,2,2
"101",79,81,100,168.347058823529,1,"lighthouses22.jpg","lighthouses","X",12,"yes",0.999847,1,0.574605226516724,"k",0,2,2
"102",79,81,101,164.247058823529,1.01,"lighthouses22.jpg","lighthouses","X",12,"yes",0.999847,1,0.574605226516724,"k",0,2,2
"103",79,81,102,173.847058823529,1.02,"lighthouses22.jpg","lighthouses","X",12,"yes",0.999847,1,0.574605226516724,"k",0,2,2
"104",79,81,103,176.347058823529,1.03,"lighthouses22.jpg","lighthouses","X",12,"yes",0.999847,1,0.574605226516724,"k",0,2,2
"105",79,81,104,174.547058823529,1.04,"lighthouses22.jpg","lighthouses","X",12,"yes",0.999847,1,0.574605226516724,"k",0,2,2
"106",79,81,105,175.547058823529,1.05,"lighthouses22.jpg","lighthouses","X",12,"yes",0.999847,1,0.574605226516724,"k",0,2,2
"107",79,81,106,188.547058823529,1.06,"lighthouses22.jpg","lighthouses","X",12,"yes",0.999847,1,0.574605226516724,"k",0,2,2
"108",79,81,107,203.547058823529,1.07,"lighthouses22.jpg","lighthouses","X",12,"yes",0.999847,1,0.574605226516724,"k",0,2,2
"109",79,81,108,208.247058823529,1.08,"lighthouses22.jpg","lighthouses","X",12,"yes",0.999847,1,0.574605226516724,"k",0,2,2
"110",79,81,109,223.147058823529,1.09,"lighthouses22.jpg","lighthouses","X",12,"yes",0.999847,1,0.574605226516724,"k",0,2,2
"111",79,81,110,226.547058823529,1.1,"lighthouses22.jpg","lighthouses","X",12,"yes",0.999847,1,0.574605226516724,"k",0,2,2
"112",79,81,111,242.047058823529,1.11,"lighthouses22.jpg","lighthouses","X",12,"yes",0.999847,1,0.574605226516724,"k",0,2,2
"113",79,81,112,243.465240641711,1.12,"lighthouses22.jpg","lighthouses","X",12,"yes",0.999847,1,0.574605226516724,"k",0,2,2
"114",79,81,113,235.947058823529,1.13,"lighthouses22.jpg","lighthouses","X",12,"yes",0.999847,1,0.574605226516724,"k",0,2,2
"115",79,81,114,244.847058823529,1.14,"lighthouses22.jpg","lighthouses","X",12,"yes",0.999847,1,0.574605226516724,"k",0,2,2
"116",79,81,115,256.647058823529,1.15,"lighthouses22.jpg","lighthouses","X",12,"yes",0.999847,1,0.574605226516724,"k",0,2,2
"117",79,81,116,259.547058823529,1.16,"lighthouses22.jpg","lighthouses","X",12,"yes",0.999847,1,0.574605226516724,"k",0,2,2
"118",79,81,117,264.447058823529,1.17,"lighthouses22.jpg","lighthouses","X",12,"yes",0.999847,1,0.574605226516724,"k",0,2,2
"119",79,81,118,NA,1.18,"lighthouses22.jpg","lighthouses","X",12,"yes",0.999847,1,0.574605226516724,"k",0,2,2
"120",79,81,119,NA,1.19,"lighthouses22.jpg","lighthouses","X",12,"yes",0.999847,1,0.574605226516724,"k",0,2,2
"121",79,81,120,NA,1.2,"lighthouses22.jpg","lighthouses","X",12,"yes",0.999847,1,0.574605226516724,"k",0,2,2
"122",79,81,121,NA,1.21,"lighthouses22.jpg","lighthouses","X",12,"yes",0.999847,1,0.574605226516724,"k",0,2,2
"123",79,81,122,NA,1.22,"lighthouses22.jpg","lighthouses","X",12,"yes",0.999847,1,0.574605226516724,"k",0,2,2
"124",79,81,123,NA,1.23,"lighthouses22.jpg","lighthouses","X",12,"yes",0.999847,1,0.574605226516724,"k",0,2,2
"125",79,81,124,NA,1.24,"lighthouses22.jpg","lighthouses","X",12,"yes",0.999847,1,0.574605226516724,"k",0,2,2
"126",79,81,125,NA,1.25,"lighthouses22.jpg","lighthouses","X",12,"yes",0.999847,1,0.574605226516724,"k",0,2,2
"127",79,81,126,NA,1.26,"lighthouses22.jpg","lighthouses","X",12,"yes",0.999847,1,0.574605226516724,"k",0,2,2
"128",79,81,127,NA,1.27,"lighthouses22.jpg","lighthouses","X",12,"yes",0.999847,1,0.574605226516724,"k",0,2,2
"129",79,81,128,NA,1.28,"lighthouses22.jpg","lighthouses","X",12,"yes",0.999847,1,0.574605226516724,"k",0,2,2
"130",79,81,129,NA,1.29,"lighthouses22.jpg","lighthouses","X",12,"yes",0.999847,1,0.574605226516724,"k",0,2,2
"131",79,81,130,NA,1.3,"lighthouses22.jpg","lighthouses","X",12,"yes",0.999847,1,0.574605226516724,"k",0,2,2
"132",79,81,131,NA,1.31,"lighthouses22.jpg","lighthouses","X",12,"yes",0.999847,1,0.574605226516724,"k",0,2,2
"133",79,81,132,NA,1.32,"lighthouses22.jpg","lighthouses","X",12,"yes",0.999847,1,0.574605226516724,"k",0,2,2
"134",79,81,133,NA,1.33,"lighthouses22.jpg","lighthouses","X",12,"yes",0.999847,1,0.574605226516724,"k",0,2,2
"135",79,81,134,NA,1.34,"lighthouses22.jpg","lighthouses","X",12,"yes",0.999847,1,0.574605226516724,"k",0,2,2
"136",79,81,135,NA,1.35,"lighthouses22.jpg","lighthouses","X",12,"yes",0.999847,1,0.574605226516724,"k",0,2,2
"137",79,81,136,NA,1.36,"lighthouses22.jpg","lighthouses","X",12,"yes",0.999847,1,0.574605226516724,"k",0,2,2
"138",79,81,137,NA,1.37,"lighthouses22.jpg","lighthouses","X",12,"yes",0.999847,1,0.574605226516724,"k",0,2,2
"139",79,81,138,NA,1.38,"lighthouses22.jpg","lighthouses","X",12,"yes",0.999847,1,0.574605226516724,"k",0,2,2
"140",79,81,139,NA,1.39,"lighthouses22.jpg","lighthouses","X",12,"yes",0.999847,1,0.574605226516724,"k",0,2,2
"141",79,81,140,NA,1.4,"lighthouses22.jpg","lighthouses","X",12,"yes",0.999847,1,0.574605226516724,"k",0,2,2
"142",79,81,141,NA,1.41,"lighthouses22.jpg","lighthouses","X",12,"yes",0.999847,1,0.574605226516724,"k",0,2,2
"143",79,81,142,NA,1.42,"lighthouses22.jpg","lighthouses","X",12,"yes",0.999847,1,0.574605226516724,"k",0,2,2
"144",79,81,143,NA,1.43,"lighthouses22.jpg","lighthouses","X",12,"yes",0.999847,1,0.574605226516724,"k",0,2,2
"145",79,81,144,NA,1.44,"lighthouses22.jpg","lighthouses","X",12,"yes",0.999847,1,0.574605226516724,"k",0,2,2
"146",79,81,145,NA,1.45,"lighthouses22.jpg","lighthouses","X",12,"yes",0.999847,1,0.574605226516724,"k",0,2,2
"147",79,81,146,NA,1.46,"lighthouses22.jpg","lighthouses","X",12,"yes",0.999847,1,0.574605226516724,"k",0,2,2
"148",79,81,147,NA,1.47,"lighthouses22.jpg","lighthouses","X",12,"yes",0.999847,1,0.574605226516724,"k",0,2,2
"149",79,81,148,NA,1.48,"lighthouses22.jpg","lighthouses","X",12,"yes",0.999847,1,0.574605226516724,"k",0,2,2
"150",79,81,149,NA,1.49,"lighthouses22.jpg","lighthouses","X",12,"yes",0.999847,1,0.574605226516724,"k",0,2,2
"151",79,81,150,NA,1.5,"lighthouses22.jpg","lighthouses","X",12,"yes",0.999847,1,0.574605226516724,"k",0,2,2
"152",79,81,151,NA,1.51,"lighthouses22.jpg","lighthouses","X",12,"yes",0.999847,1,0.574605226516724,"k",0,2,2
"153",79,81,152,NA,1.52,"lighthouses22.jpg","lighthouses","X",12,"yes",0.999847,1,0.574605226516724,"k",0,2,2
"154",79,81,153,NA,1.53,"lighthouses22.jpg","lighthouses","X",12,"yes",0.999847,1,0.574605226516724,"k",0,2,2
"155",79,81,154,NA,1.54,"lighthouses22.jpg","lighthouses","X",12,"yes",0.999847,1,0.574605226516724,"k",0,2,2
"156",79,81,155,NA,1.55,"lighthouses22.jpg","lighthouses","X",12,"yes",0.999847,1,0.574605226516724,"k",0,2,2
"157",79,81,156,NA,1.56,"lighthouses22.jpg","lighthouses","X",12,"yes",0.999847,1,0.574605226516724,"k",0,2,2
"158",79,81,157,NA,1.57,"lighthouses22.jpg","lighthouses","X",12,"yes",0.999847,1,0.574605226516724,"k",0,2,2
"159",79,81,158,NA,1.58,"lighthouses22.jpg","lighthouses","X",12,"yes",0.999847,1,0.574605226516724,"k",0,2,2
"160",79,81,159,NA,1.59,"lighthouses22.jpg","lighthouses","X",12,"yes",0.999847,1,0.574605226516724,"k",0,2,2
"161",79,81,160,NA,1.6,"lighthouses22.jpg","lighthouses","X",12,"yes",0.999847,1,0.574605226516724,"k",0,2,2
"162",79,81,161,NA,1.61,"lighthouses22.jpg","lighthouses","X",12,"yes",0.999847,1,0.574605226516724,"k",0,2,2
"163",79,81,162,NA,1.62,"lighthouses22.jpg","lighthouses","X",12,"yes",0.999847,1,0.574605226516724,"k",0,2,2
"164",79,81,163,NA,1.63,"lighthouses22.jpg","lighthouses","X",12,"yes",0.999847,1,0.574605226516724,"k",0,2,2
"165",79,81,164,NA,1.64,"lighthouses22.jpg","lighthouses","X",12,"yes",0.999847,1,0.574605226516724,"k",0,2,2
"166",79,81,165,NA,1.65,"lighthouses22.jpg","lighthouses","X",12,"yes",0.999847,1,0.574605226516724,"k",0,2,2
"167",79,81,166,NA,1.66,"lighthouses22.jpg","lighthouses","X",12,"yes",0.999847,1,0.574605226516724,"k",0,2,2
"168",79,81,167,NA,1.67,"lighthouses22.jpg","lighthouses","X",12,"yes",0.999847,1,0.574605226516724,"k",0,2,2
"169",79,81,168,NA,1.68,"lighthouses22.jpg","lighthouses","X",12,"yes",0.999847,1,0.574605226516724,"k",0,2,2
"170",79,81,169,NA,1.69,"lighthouses22.jpg","lighthouses","X",12,"yes",0.999847,1,0.574605226516724,"k",0,2,2
"171",79,81,170,NA,1.7,"lighthouses22.jpg","lighthouses","X",12,"yes",0.999847,1,0.574605226516724,"k",0,2,2
"172",79,81,171,NA,1.71,"lighthouses22.jpg","lighthouses","X",12,"yes",0.999847,1,0.574605226516724,"k",0,2,2
"173",79,81,172,NA,1.72,"lighthouses22.jpg","lighthouses","X",12,"yes",0.999847,1,0.574605226516724,"k",0,2,2
"174",79,81,173,NA,1.73,"lighthouses22.jpg","lighthouses","X",12,"yes",0.999847,1,0.574605226516724,"k",0,2,2
"175",79,81,174,NA,1.74,"lighthouses22.jpg","lighthouses","X",12,"yes",0.999847,1,0.574605226516724,"k",0,2,2
"176",79,81,175,NA,1.75,"lighthouses22.jpg","lighthouses","X",12,"yes",0.999847,1,0.574605226516724,"k",0,2,2
"177",79,81,176,NA,1.76,"lighthouses22.jpg","lighthouses","X",12,"yes",0.999847,1,0.574605226516724,"k",0,2,2
"178",79,81,177,NA,1.77,"lighthouses22.jpg","lighthouses","X",12,"yes",0.999847,1,0.574605226516724,"k",0,2,2
"179",79,81,178,NA,1.78,"lighthouses22.jpg","lighthouses","X",12,"yes",0.999847,1,0.574605226516724,"k",0,2,2
"180",79,81,179,NA,1.79,"lighthouses22.jpg","lighthouses","X",12,"yes",0.999847,1,0.574605226516724,"k",0,2,2
"181",79,81,180,NA,1.8,"lighthouses22.jpg","lighthouses","X",12,"yes",0.999847,1,0.574605226516724,"k",0,2,2
"182",79,81,181,NA,1.81,"lighthouses22.jpg","lighthouses","X",12,"yes",0.999847,1,0.574605226516724,"k",0,2,2
"183",79,81,182,NA,1.82,"lighthouses22.jpg","lighthouses","X",12,"yes",0.999847,1,0.574605226516724,"k",0,2,2
"184",79,81,183,NA,1.83,"lighthouses22.jpg","lighthouses","X",12,"yes",0.999847,1,0.574605226516724,"k",0,2,2
"185",79,81,184,NA,1.84,"lighthouses22.jpg","lighthouses","X",12,"yes",0.999847,1,0.574605226516724,"k",0,2,2
"186",79,81,185,NA,1.85,"lighthouses22.jpg","lighthouses","X",12,"yes",0.999847,1,0.574605226516724,"k",0,2,2
"187",79,81,186,NA,1.86,"lighthouses22.jpg","lighthouses","X",12,"yes",0.999847,1,0.574605226516724,"k",0,2,2
"188",79,81,187,NA,1.87,"lighthouses22.jpg","lighthouses","X",12,"yes",0.999847,1,0.574605226516724,"k",0,2,2
"189",79,81,188,NA,1.88,"lighthouses22.jpg","lighthouses","X",12,"yes",0.999847,1,0.574605226516724,"k",0,2,2
"190",79,81,189,NA,1.89,"lighthouses22.jpg","lighthouses","X",12,"yes",0.999847,1,0.574605226516724,"k",0,2,2
"191",79,81,190,NA,1.9,"lighthouses22.jpg","lighthouses","X",12,"yes",0.999847,1,0.574605226516724,"k",0,2,2
"192",79,81,191,NA,1.91,"lighthouses22.jpg","lighthouses","X",12,"yes",0.999847,1,0.574605226516724,"k",0,2,2
"193",79,81,192,NA,1.92,"lighthouses22.jpg","lighthouses","X",12,"yes",0.999847,1,0.574605226516724,"k",0,2,2
"194",79,81,193,NA,1.93,"lighthouses22.jpg","lighthouses","X",12,"yes",0.999847,1,0.574605226516724,"k",0,2,2
"195",79,81,194,NA,1.94,"lighthouses22.jpg","lighthouses","X",12,"yes",0.999847,1,0.574605226516724,"k",0,2,2
"196",79,81,195,NA,1.95,"lighthouses22.jpg","lighthouses","X",12,"yes",0.999847,1,0.574605226516724,"k",0,2,2
"197",79,81,196,NA,1.96,"lighthouses22.jpg","lighthouses","X",12,"yes",0.999847,1,0.574605226516724,"k",0,2,2
"198",79,81,197,NA,1.97,"lighthouses22.jpg","lighthouses","X",12,"yes",0.999847,1,0.574605226516724,"k",0,2,2
"199",79,81,198,NA,1.98,"lighthouses22.jpg","lighthouses","X",12,"yes",0.999847,1,0.574605226516724,"k",0,2,2
"200",79,81,199,NA,1.99,"lighthouses22.jpg","lighthouses","X",12,"yes",0.999847,1,0.574605226516724,"k",0,2,2
"201",79,81,200,NA,2,"lighthouses22.jpg","lighthouses","X",12,"yes",0.999847,1,0.574605226516724,"k",0,2,2
"202",79,81,201,NA,2.01,"lighthouses22.jpg","lighthouses","X",12,"yes",0.999847,1,0.574605226516724,"k",0,2,2
"203",79,81,202,NA,2.02,"lighthouses22.jpg","lighthouses","X",12,"yes",0.999847,1,0.574605226516724,"k",0,2,2
"204",79,81,203,NA,2.03,"lighthouses22.jpg","lighthouses","X",12,"yes",0.999847,1,0.574605226516724,"k",0,2,2
"205",79,81,204,NA,2.04,"lighthouses22.jpg","lighthouses","X",12,"yes",0.999847,1,0.574605226516724,"k",0,2,2
"206",79,81,205,NA,2.05,"lighthouses22.jpg","lighthouses","X",12,"yes",0.999847,1,0.574605226516724,"k",0,2,2
"207",79,81,206,NA,2.06,"lighthouses22.jpg","lighthouses","X",12,"yes",0.999847,1,0.574605226516724,"k",0,2,2
"208",79,81,207,NA,2.07,"lighthouses22.jpg","lighthouses","X",12,"yes",0.999847,1,0.574605226516724,"k",0,2,2
"209",79,81,208,NA,2.08,"lighthouses22.jpg","lighthouses","X",12,"yes",0.999847,1,0.574605226516724,"k",0,2,2
"210",79,81,209,NA,2.09,"lighthouses22.jpg","lighthouses","X",12,"yes",0.999847,1,0.574605226516724,"k",0,2,2
"211",79,81,210,NA,2.1,"lighthouses22.jpg","lighthouses","X",12,"yes",0.999847,1,0.574605226516724,"k",0,2,2
"212",79,81,211,NA,2.11,"lighthouses22.jpg","lighthouses","X",12,"yes",0.999847,1,0.574605226516724,"k",0,2,2
"213",79,81,212,NA,2.12,"lighthouses22.jpg","lighthouses","X",12,"yes",0.999847,1,0.574605226516724,"k",0,2,2
"214",79,81,213,NA,2.13,"lighthouses22.jpg","lighthouses","X",12,"yes",0.999847,1,0.574605226516724,"k",0,2,2
"215",79,81,214,NA,2.14,"lighthouses22.jpg","lighthouses","X",12,"yes",0.999847,1,0.574605226516724,"k",0,2,2
"216",79,81,215,NA,2.15,"lighthouses22.jpg","lighthouses","X",12,"yes",0.999847,1,0.574605226516724,"k",0,2,2
"217",79,81,216,NA,2.16,"lighthouses22.jpg","lighthouses","X",12,"yes",0.999847,1,0.574605226516724,"k",0,2,2
"218",79,81,217,NA,2.17,"lighthouses22.jpg","lighthouses","X",12,"yes",0.999847,1,0.574605226516724,"k",0,2,2
"219",79,81,218,NA,2.18,"lighthouses22.jpg","lighthouses","X",12,"yes",0.999847,1,0.574605226516724,"k",0,2,2
"220",79,81,219,NA,2.19,"lighthouses22.jpg","lighthouses","X",12,"yes",0.999847,1,0.574605226516724,"k",0,2,2
"221",79,81,220,NA,2.2,"lighthouses22.jpg","lighthouses","X",12,"yes",0.999847,1,0.574605226516724,"k",0,2,2
"222",79,81,221,NA,2.21,"lighthouses22.jpg","lighthouses","X",12,"yes",0.999847,1,0.574605226516724,"k",0,2,2
"223",79,81,222,NA,2.22,"lighthouses22.jpg","lighthouses","X",12,"yes",0.999847,1,0.574605226516724,"k",0,2,2
"224",79,81,223,NA,2.23,"lighthouses22.jpg","lighthouses","X",12,"yes",0.999847,1,0.574605226516724,"k",0,2,2
"225",79,81,224,NA,2.24,"lighthouses22.jpg","lighthouses","X",12,"yes",0.999847,1,0.574605226516724,"k",0,2,2
"226",79,81,225,NA,2.25,"lighthouses22.jpg","lighthouses","X",12,"yes",0.999847,1,0.574605226516724,"k",0,2,2
"227",79,81,226,NA,2.26,"lighthouses22.jpg","lighthouses","X",12,"yes",0.999847,1,0.574605226516724,"k",0,2,2
"228",79,81,227,NA,2.27,"lighthouses22.jpg","lighthouses","X",12,"yes",0.999847,1,0.574605226516724,"k",0,2,2
"229",79,81,228,NA,2.28,"lighthouses22.jpg","lighthouses","X",12,"yes",0.999847,1,0.574605226516724,"k",0,2,2
"230",79,81,229,NA,2.29,"lighthouses22.jpg","lighthouses","X",12,"yes",0.999847,1,0.574605226516724,"k",0,2,2
"231",79,81,230,NA,2.3,"lighthouses22.jpg","lighthouses","X",12,"yes",0.999847,1,0.574605226516724,"k",0,2,2
"232",79,81,231,NA,2.31,"lighthouses22.jpg","lighthouses","X",12,"yes",0.999847,1,0.574605226516724,"k",0,2,2
"233",79,81,232,NA,2.32,"lighthouses22.jpg","lighthouses","X",12,"yes",0.999847,1,0.574605226516724,"k",0,2,2
"234",79,81,233,NA,2.33,"lighthouses22.jpg","lighthouses","X",12,"yes",0.999847,1,0.574605226516724,"k",0,2,2
"235",79,81,234,NA,2.34,"lighthouses22.jpg","lighthouses","X",12,"yes",0.999847,1,0.574605226516724,"k",0,2,2
"236",79,81,235,NA,2.35,"lighthouses22.jpg","lighthouses","X",12,"yes",0.999847,1,0.574605226516724,"k",0,2,2
"237",79,81,236,NA,2.36,"lighthouses22.jpg","lighthouses","X",12,"yes",0.999847,1,0.574605226516724,"k",0,2,2
"238",79,81,237,NA,2.37,"lighthouses22.jpg","lighthouses","X",12,"yes",0.999847,1,0.574605226516724,"k",0,2,2
"239",79,81,238,NA,2.38,"lighthouses22.jpg","lighthouses","X",12,"yes",0.999847,1,0.574605226516724,"k",0,2,2
"240",79,81,239,NA,2.39,"lighthouses22.jpg","lighthouses","X",12,"yes",0.999847,1,0.574605226516724,"k",0,2,2
"241",79,81,240,NA,2.4,"lighthouses22.jpg","lighthouses","X",12,"yes",0.999847,1,0.574605226516724,"k",0,2,2
"242",79,81,241,NA,2.41,"lighthouses22.jpg","lighthouses","X",12,"yes",0.999847,1,0.574605226516724,"k",0,2,2
"243",79,81,242,NA,2.42,"lighthouses22.jpg","lighthouses","X",12,"yes",0.999847,1,0.574605226516724,"k",0,2,2
"244",79,81,243,NA,2.43,"lighthouses22.jpg","lighthouses","X",12,"yes",0.999847,1,0.574605226516724,"k",0,2,2
"245",79,81,244,NA,2.44,"lighthouses22.jpg","lighthouses","X",12,"yes",0.999847,1,0.574605226516724,"k",0,2,2
"246",79,81,245,NA,2.45,"lighthouses22.jpg","lighthouses","X",12,"yes",0.999847,1,0.574605226516724,"k",0,2,2
"247",79,81,246,NA,2.46,"lighthouses22.jpg","lighthouses","X",12,"yes",0.999847,1,0.574605226516724,"k",0,2,2
"248",79,81,247,NA,2.47,"lighthouses22.jpg","lighthouses","X",12,"yes",0.999847,1,0.574605226516724,"k",0,2,2
"249",79,81,248,NA,2.48,"lighthouses22.jpg","lighthouses","X",12,"yes",0.999847,1,0.574605226516724,"k",0,2,2
"250",79,81,249,NA,2.49,"lighthouses22.jpg","lighthouses","X",12,"yes",0.999847,1,0.574605226516724,"k",0,2,2
"251",79,81,250,NA,2.5,"lighthouses22.jpg","lighthouses","X",12,"yes",0.999847,1,0.574605226516724,"k",0,2,2
"252",79,81,251,NA,2.51,"lighthouses22.jpg","lighthouses","X",12,"yes",0.999847,1,0.574605226516724,"k",0,2,2
"253",79,81,252,NA,2.52,"lighthouses22.jpg","lighthouses","X",12,"yes",0.999847,1,0.574605226516724,"k",0,2,2
"254",79,81,253,NA,2.53,"lighthouses22.jpg","lighthouses","X",12,"yes",0.999847,1,0.574605226516724,"k",0,2,2
"255",79,81,254,NA,2.54,"lighthouses22.jpg","lighthouses","X",12,"yes",0.999847,1,0.574605226516724,"k",0,2,2
"256",79,81,255,NA,2.55,"lighthouses22.jpg","lighthouses","X",12,"yes",0.999847,1,0.574605226516724,"k",0,2,2
"257",79,81,256,NA,2.56,"lighthouses22.jpg","lighthouses","X",12,"yes",0.999847,1,0.574605226516724,"k",0,2,2
"258",79,81,257,NA,2.57,"lighthouses22.jpg","lighthouses","X",12,"yes",0.999847,1,0.574605226516724,"k",0,2,2
"259",79,81,258,NA,2.58,"lighthouses22.jpg","lighthouses","X",12,"yes",0.999847,1,0.574605226516724,"k",0,2,2
"260",79,81,259,NA,2.59,"lighthouses22.jpg","lighthouses","X",12,"yes",0.999847,1,0.574605226516724,"k",0,2,2
"261",79,81,260,NA,2.6,"lighthouses22.jpg","lighthouses","X",12,"yes",0.999847,1,0.574605226516724,"k",0,2,2
"262",79,81,261,NA,2.61,"lighthouses22.jpg","lighthouses","X",12,"yes",0.999847,1,0.574605226516724,"k",0,2,2
"263",79,81,262,NA,2.62,"lighthouses22.jpg","lighthouses","X",12,"yes",0.999847,1,0.574605226516724,"k",0,2,2
"264",79,81,263,NA,2.63,"lighthouses22.jpg","lighthouses","X",12,"yes",0.999847,1,0.574605226516724,"k",0,2,2
"265",79,81,264,NA,2.64,"lighthouses22.jpg","lighthouses","X",12,"yes",0.999847,1,0.574605226516724,"k",0,2,2
"266",79,81,265,NA,2.65,"lighthouses22.jpg","lighthouses","X",12,"yes",0.999847,1,0.574605226516724,"k",0,2,2
"267",79,81,266,NA,2.66,"lighthouses22.jpg","lighthouses","X",12,"yes",0.999847,1,0.574605226516724,"k",0,2,2
"268",79,81,267,NA,2.67,"lighthouses22.jpg","lighthouses","X",12,"yes",0.999847,1,0.574605226516724,"k",0,2,2
"269",79,81,268,NA,2.68,"lighthouses22.jpg","lighthouses","X",12,"yes",0.999847,1,0.574605226516724,"k",0,2,2
"270",79,81,269,NA,2.69,"lighthouses22.jpg","lighthouses","X",12,"yes",0.999847,1,0.574605226516724,"k",0,2,2
"271",79,81,270,NA,2.7,"lighthouses22.jpg","lighthouses","X",12,"yes",0.999847,1,0.574605226516724,"k",0,2,2
"272",79,81,271,NA,2.71,"lighthouses22.jpg","lighthouses","X",12,"yes",0.999847,1,0.574605226516724,"k",0,2,2
"273",79,81,272,NA,2.72,"lighthouses22.jpg","lighthouses","X",12,"yes",0.999847,1,0.574605226516724,"k",0,2,2
"274",79,81,273,NA,2.73,"lighthouses22.jpg","lighthouses","X",12,"yes",0.999847,1,0.574605226516724,"k",0,2,2
"275",79,81,274,NA,2.74,"lighthouses22.jpg","lighthouses","X",12,"yes",0.999847,1,0.574605226516724,"k",0,2,2
"276",79,81,275,NA,2.75,"lighthouses22.jpg","lighthouses","X",12,"yes",0.999847,1,0.574605226516724,"k",0,2,2
"277",79,81,276,NA,2.76,"lighthouses22.jpg","lighthouses","X",12,"yes",0.999847,1,0.574605226516724,"k",0,2,2
"278",79,81,277,NA,2.77,"lighthouses22.jpg","lighthouses","X",12,"yes",0.999847,1,0.574605226516724,"k",0,2,2
"279",79,81,278,NA,2.78,"lighthouses22.jpg","lighthouses","X",12,"yes",0.999847,1,0.574605226516724,"k",0,2,2
"280",79,81,279,NA,2.79,"lighthouses22.jpg","lighthouses","X",12,"yes",0.999847,1,0.574605226516724,"k",0,2,2
"281",79,81,280,NA,2.8,"lighthouses22.jpg","lighthouses","X",12,"yes",0.999847,1,0.574605226516724,"k",0,2,2
"282",79,81,281,NA,2.81,"lighthouses22.jpg","lighthouses","X",12,"yes",0.999847,1,0.574605226516724,"k",0,2,2
"283",79,81,282,NA,2.82,"lighthouses22.jpg","lighthouses","X",12,"yes",0.999847,1,0.574605226516724,"k",0,2,2
"284",79,81,283,NA,2.83,"lighthouses22.jpg","lighthouses","X",12,"yes",0.999847,1,0.574605226516724,"k",0,2,2
"285",79,81,284,NA,2.84,"lighthouses22.jpg","lighthouses","X",12,"yes",0.999847,1,0.574605226516724,"k",0,2,2
"286",79,81,285,NA,2.85,"lighthouses22.jpg","lighthouses","X",12,"yes",0.999847,1,0.574605226516724,"k",0,2,2
"287",79,81,286,NA,2.86,"lighthouses22.jpg","lighthouses","X",12,"yes",0.999847,1,0.574605226516724,"k",0,2,2
"288",79,81,287,NA,2.87,"lighthouses22.jpg","lighthouses","X",12,"yes",0.999847,1,0.574605226516724,"k",0,2,2
"289",79,81,288,NA,2.88,"lighthouses22.jpg","lighthouses","X",12,"yes",0.999847,1,0.574605226516724,"k",0,2,2
"290",79,81,289,NA,2.89,"lighthouses22.jpg","lighthouses","X",12,"yes",0.999847,1,0.574605226516724,"k",0,2,2
"291",79,81,290,NA,2.9,"lighthouses22.jpg","lighthouses","X",12,"yes",0.999847,1,0.574605226516724,"k",0,2,2
"292",79,81,291,NA,2.91,"lighthouses22.jpg","lighthouses","X",12,"yes",0.999847,1,0.574605226516724,"k",0,2,2
"293",79,81,292,NA,2.92,"lighthouses22.jpg","lighthouses","X",12,"yes",0.999847,1,0.574605226516724,"k",0,2,2
"294",79,81,293,NA,2.93,"lighthouses22.jpg","lighthouses","X",12,"yes",0.999847,1,0.574605226516724,"k",0,2,2
"295",79,81,294,NA,2.94,"lighthouses22.jpg","lighthouses","X",12,"yes",0.999847,1,0.574605226516724,"k",0,2,2
"296",79,81,295,NA,2.95,"lighthouses22.jpg","lighthouses","X",12,"yes",0.999847,1,0.574605226516724,"k",0,2,2
"297",79,81,296,NA,2.96,"lighthouses22.jpg","lighthouses","X",12,"yes",0.999847,1,0.574605226516724,"k",0,2,2
"298",79,81,297,NA,2.97,"lighthouses22.jpg","lighthouses","X",12,"yes",0.999847,1,0.574605226516724,"k",0,2,2
"299",79,66,0,-4.38431372549019,0,"bridges20.jpg","bridges","X",17,"yes",0.999879,1,0.534369945526123,"k",0,3,2
"300",79,66,1,-2.18431372549019,0.01,"bridges20.jpg","bridges","X",17,"yes",0.999879,1,0.534369945526123,"k",0,3,2
"301",79,66,2,-2.18431372549019,0.02,"bridges20.jpg","bridges","X",17,"yes",0.999879,1,0.534369945526123,"k",0,3,2
"302",79,66,3,6.51568627450981,0.03,"bridges20.jpg","bridges","X",17,"yes",0.999879,1,0.534369945526123,"k",0,3,2
"303",79,66,4,2.61568627450981,0.04,"bridges20.jpg","bridges","X",17,"yes",0.999879,1,0.534369945526123,"k",0,3,2
"304",79,66,5,2.51568627450981,0.05,"bridges20.jpg","bridges","X",17,"yes",0.999879,1,0.534369945526123,"k",0,3,2
"305",79,66,6,10.2156862745098,0.06,"bridges20.jpg","bridges","X",17,"yes",0.999879,1,0.534369945526123,"k",0,3,2
"306",79,66,7,15.5156862745098,0.07,"bridges20.jpg","bridges","X",17,"yes",0.999879,1,0.534369945526123,"k",0,3,2
"307",79,66,8,16.1156862745098,0.08,"bridges20.jpg","bridges","X",17,"yes",0.999879,1,0.534369945526123,"k",0,3,2
"308",79,66,9,24.9156862745098,0.09,"bridges20.jpg","bridges","X",17,"yes",0.999879,1,0.534369945526123,"k",0,3,2
"309",79,66,10,22.4156862745098,0.1,"bridges20.jpg","bridges","X",17,"yes",0.999879,1,0.534369945526123,"k",0,3,2
"310",79,66,11,22.7156862745098,0.11,"bridges20.jpg","bridges","X",17,"yes",0.999879,1,0.534369945526123,"k",0,3,2
"311",79,66,12,34.7156862745098,0.12,"bridges20.jpg","bridges","X",17,"yes",0.999879,1,0.534369945526123,"k",0,3,2
"312",79,66,13,31.0156862745098,0.13,"bridges20.jpg","bridges","X",17,"yes",0.999879,1,0.534369945526123,"k",0,3,2
"313",79,66,14,41.1156862745098,0.14,"bridges20.jpg","bridges","X",17,"yes",0.999879,1,0.534369945526123,"k",0,3,2
"314",79,66,15,40.3156862745098,0.15,"bridges20.jpg","bridges","X",17,"yes",0.999879,1,0.534369945526123,"k",0,3,2
"315",79,66,16,47.9156862745098,0.16,"bridges20.jpg","bridges","X",17,"yes",0.999879,1,0.534369945526123,"k",0,3,2
"316",79,66,17,48.1156862745098,0.17,"bridges20.jpg","bridges","X",17,"yes",0.999879,1,0.534369945526123,"k",0,3,2
"317",79,66,18,49.9156862745098,0.18,"bridges20.jpg","bridges","X",17,"yes",0.999879,1,0.534369945526123,"k",0,3,2
"318",79,66,19,49.3156862745098,0.19,"bridges20.jpg","bridges","X",17,"yes",0.999879,1,0.534369945526123,"k",0,3,2
"319",79,66,20,46.1156862745098,0.2,"bridges20.jpg","bridges","X",17,"yes",0.999879,1,0.534369945526123,"k",0,3,2
"320",79,66,21,21.9156862745098,0.21,"bridges20.jpg","bridges","X",17,"yes",0.999879,1,0.534369945526123,"k",0,3,2
"321",79,66,22,-4.0843137254902,0.22,"bridges20.jpg","bridges","X",17,"yes",0.999879,1,0.534369945526123,"k",0,3,2
"322",79,66,23,-30.0843137254902,0.23,"bridges20.jpg","bridges","X",17,"yes",0.999879,1,0.534369945526123,"k",0,3,2
"323",79,66,24,-56.0843137254902,0.24,"bridges20.jpg","bridges","X",17,"yes",0.999879,1,0.534369945526123,"k",0,3,2
"324",79,66,25,-75.6843137254902,0.25,"bridges20.jpg","bridges","X",17,"yes",0.999879,1,0.534369945526123,"k",0,3,2
"325",79,66,26,-68.8843137254902,0.26,"bridges20.jpg","bridges","X",17,"yes",0.999879,1,0.534369945526123,"k",0,3,2
"326",79,66,27,-70.5843137254902,0.27,"bridges20.jpg","bridges","X",17,"yes",0.999879,1,0.534369945526123,"k",0,3,2
"327",79,66,28,-63.7843137254902,0.28,"bridges20.jpg","bridges","X",17,"yes",0.999879,1,0.534369945526123,"k",0,3,2
"328",79,66,29,-62.4509803921569,0.29,"bridges20.jpg","bridges","X",17,"yes",0.999879,1,0.534369945526123,"k",0,3,2
"329",79,66,30,-61.4843137254902,0.3,"bridges20.jpg","bridges","X",17,"yes",0.999879,1,0.534369945526123,"k",0,3,2
"330",79,66,31,-54.4843137254902,0.31,"bridges20.jpg","bridges","X",17,"yes",0.999879,1,0.534369945526123,"k",0,3,2
"331",79,66,32,-59.3843137254902,0.32,"bridges20.jpg","bridges","X",17,"yes",0.999879,1,0.534369945526123,"k",0,3,2
"332",79,66,33,-55.6843137254902,0.33,"bridges20.jpg","bridges","X",17,"yes",0.999879,1,0.534369945526123,"k",0,3,2
"333",79,66,34,-54.5843137254902,0.34,"bridges20.jpg","bridges","X",17,"yes",0.999879,1,0.534369945526123,"k",0,3,2
"334",79,66,35,-56.3843137254902,0.35,"bridges20.jpg","bridges","X",17,"yes",0.999879,1,0.534369945526123,"k",0,3,2
"335",79,66,36,-55.3843137254902,0.36,"bridges20.jpg","bridges","X",17,"yes",0.999879,1,0.534369945526123,"k",0,3,2
"336",79,66,37,-61.0843137254902,0.37,"bridges20.jpg","bridges","X",17,"yes",0.999879,1,0.534369945526123,"k",0,3,2
"337",79,66,38,-60.1843137254902,0.38,"bridges20.jpg","bridges","X",17,"yes",0.999879,1,0.534369945526123,"k",0,3,2
"338",79,66,39,-66.9843137254902,0.39,"bridges20.jpg","bridges","X",17,"yes",0.999879,1,0.534369945526123,"k",0,3,2
"339",79,66,40,-75.2843137254902,0.4,"bridges20.jpg","bridges","X",17,"yes",0.999879,1,0.534369945526123,"k",0,3,2
"340",79,66,41,-75.2843137254902,0.41,"bridges20.jpg","bridges","X",17,"yes",0.999879,1,0.534369945526123,"k",0,3,2
"341",79,66,42,-80.3843137254902,0.42,"bridges20.jpg","bridges","X",17,"yes",0.999879,1,0.534369945526123,"k",0,3,2
"342",79,66,43,-81.6843137254902,0.43,"bridges20.jpg","bridges","X",17,"yes",0.999879,1,0.534369945526123,"k",0,3,2
"343",79,66,44,-88.1843137254902,0.44,"bridges20.jpg","bridges","X",17,"yes",0.999879,1,0.534369945526123,"k",0,3,2
"344",79,66,45,-92.0843137254902,0.45,"bridges20.jpg","bridges","X",17,"yes",0.999879,1,0.534369945526123,"k",0,3,2
"345",79,66,46,-94.5115864527629,0.46,"bridges20.jpg","bridges","X",17,"yes",0.999879,1,0.534369945526123,"k",0,3,2
"346",79,66,47,-94.6732026143791,0.47,"bridges20.jpg","bridges","X",17,"yes",0.999879,1,0.534369945526123,"k",0,3,2
"347",79,66,48,-104.08431372549,0.48,"bridges20.jpg","bridges","X",17,"yes",0.999879,1,0.534369945526123,"k",0,3,2
"348",79,66,49,-107.98431372549,0.49,"bridges20.jpg","bridges","X",17,"yes",0.999879,1,0.534369945526123,"k",0,3,2
"349",79,66,50,-107.58431372549,0.5,"bridges20.jpg","bridges","X",17,"yes",0.999879,1,0.534369945526123,"k",0,3,2
"350",79,66,51,-102.48431372549,0.51,"bridges20.jpg","bridges","X",17,"yes",0.999879,1,0.534369945526123,"k",0,3,2
"351",79,66,52,-106.08431372549,0.52,"bridges20.jpg","bridges","X",17,"yes",0.999879,1,0.534369945526123,"k",0,3,2
"352",79,66,53,-102.08431372549,0.53,"bridges20.jpg","bridges","X",17,"yes",0.999879,1,0.534369945526123,"k",0,3,2
"353",79,66,54,-107.98431372549,0.54,"bridges20.jpg","bridges","X",17,"yes",0.999879,1,0.534369945526123,"k",0,3,2
"354",79,66,55,-104.98431372549,0.55,"bridges20.jpg","bridges","X",17,"yes",0.999879,1,0.534369945526123,"k",0,3,2
"355",79,66,56,-100.511586452763,0.56,"bridges20.jpg","bridges","X",17,"yes",0.999879,1,0.534369945526123,"k",0,3,2
"356",79,66,57,-79.9843137254902,0.57,"bridges20.jpg","bridges","X",17,"yes",0.999879,1,0.534369945526123,"k",0,3,2
"357",79,66,58,-44.1843137254902,0.58,"bridges20.jpg","bridges","X",17,"yes",0.999879,1,0.534369945526123,"k",0,3,2
"358",79,66,59,-5.33986928104575,0.59,"bridges20.jpg","bridges","X",17,"yes",0.999879,1,0.534369945526123,"k",0,3,2
"359",79,66,60,14.8156862745098,0.6,"bridges20.jpg","bridges","X",17,"yes",0.999879,1,0.534369945526123,"k",0,3,2
"360",79,66,61,25.8156862745098,0.61,"bridges20.jpg","bridges","X",17,"yes",0.999879,1,0.534369945526123,"k",0,3,2
"361",79,66,62,22.3156862745098,0.62,"bridges20.jpg","bridges","X",17,"yes",0.999879,1,0.534369945526123,"k",0,3,2
"362",79,66,63,25.1156862745098,0.63,"bridges20.jpg","bridges","X",17,"yes",0.999879,1,0.534369945526123,"k",0,3,2
"363",79,66,64,26.9156862745098,0.64,"bridges20.jpg","bridges","X",17,"yes",0.999879,1,0.534369945526123,"k",0,3,2
"364",79,66,65,27.3156862745098,0.65,"bridges20.jpg","bridges","X",17,"yes",0.999879,1,0.534369945526123,"k",0,3,2
"365",79,66,66,29.9156862745098,0.66,"bridges20.jpg","bridges","X",17,"yes",0.999879,1,0.534369945526123,"k",0,3,2
"366",79,66,67,27.7156862745098,0.67,"bridges20.jpg","bridges","X",17,"yes",0.999879,1,0.534369945526123,"k",0,3,2
"367",79,66,68,33.4156862745098,0.68,"bridges20.jpg","bridges","X",17,"yes",0.999879,1,0.534369945526123,"k",0,3,2
"368",79,66,69,34.8156862745098,0.69,"bridges20.jpg","bridges","X",17,"yes",0.999879,1,0.534369945526123,"k",0,3,2
"369",79,66,70,34.0156862745098,0.7,"bridges20.jpg","bridges","X",17,"yes",0.999879,1,0.534369945526123,"k",0,3,2
"370",79,66,71,40.9156862745098,0.71,"bridges20.jpg","bridges","X",17,"yes",0.999879,1,0.534369945526123,"k",0,3,2
"371",79,66,72,35.8156862745098,0.72,"bridges20.jpg","bridges","X",17,"yes",0.999879,1,0.534369945526123,"k",0,3,2
"372",79,66,73,37.9156862745098,0.73,"bridges20.jpg","bridges","X",17,"yes",0.999879,1,0.534369945526123,"k",0,3,2
"373",79,66,74,37.2156862745098,0.74,"bridges20.jpg","bridges","X",17,"yes",0.999879,1,0.534369945526123,"k",0,3,2
"374",79,66,75,38.2156862745098,0.75,"bridges20.jpg","bridges","X",17,"yes",0.999879,1,0.534369945526123,"k",0,3,2
"375",79,66,76,35.1156862745098,0.76,"bridges20.jpg","bridges","X",17,"yes",0.999879,1,0.534369945526123,"k",0,3,2
"376",79,66,77,30.1156862745098,0.77,"bridges20.jpg","bridges","X",17,"yes",0.999879,1,0.534369945526123,"k",0,3,2
"377",79,66,78,29.2156862745098,0.78,"bridges20.jpg","bridges","X",17,"yes",0.999879,1,0.534369945526123,"k",0,3,2
"378",79,66,79,27.7156862745098,0.79,"bridges20.jpg","bridges","X",17,"yes",0.999879,1,0.534369945526123,"k",0,3,2
"379",79,66,80,24.6156862745098,0.8,"bridges20.jpg","bridges","X",17,"yes",0.999879,1,0.534369945526123,"k",0,3,2
"380",79,66,81,24.0156862745098,0.81,"bridges20.jpg","bridges","X",17,"yes",0.999879,1,0.534369945526123,"k",0,3,2
"381",79,66,82,21.2156862745098,0.82,"bridges20.jpg","bridges","X",17,"yes",0.999879,1,0.534369945526123,"k",0,3,2
"382",79,66,83,20.9156862745098,0.83,"bridges20.jpg","bridges","X",17,"yes",0.999879,1,0.534369945526123,"k",0,3,2
"383",79,66,84,22.3156862745098,0.84,"bridges20.jpg","bridges","X",17,"yes",0.999879,1,0.534369945526123,"k",0,3,2
"384",79,66,85,19.8156862745098,0.85,"bridges20.jpg","bridges","X",17,"yes",0.999879,1,0.534369945526123,"k",0,3,2
"385",79,66,86,17.3156862745098,0.86,"bridges20.jpg","bridges","X",17,"yes",0.999879,1,0.534369945526123,"k",0,3,2
"386",79,66,87,14.5156862745098,0.87,"bridges20.jpg","bridges","X",17,"yes",0.999879,1,0.534369945526123,"k",0,3,2
"387",79,66,88,8.71568627450981,0.88,"bridges20.jpg","bridges","X",17,"yes",0.999879,1,0.534369945526123,"k",0,3,2
"388",79,66,89,12.5156862745098,0.89,"bridges20.jpg","bridges","X",17,"yes",0.999879,1,0.534369945526123,"k",0,3,2
"389",79,66,90,13.0156862745098,0.9,"bridges20.jpg","bridges","X",17,"yes",0.999879,1,0.534369945526123,"k",0,3,2
"390",79,66,91,19.3156862745098,0.91,"bridges20.jpg","bridges","X",17,"yes",0.999879,1,0.534369945526123,"k",0,3,2
"391",79,66,92,16.2156862745098,0.92,"bridges20.jpg","bridges","X",17,"yes",0.999879,1,0.534369945526123,"k",0,3,2
"392",79,66,93,24.4884135472371,0.93,"bridges20.jpg","bridges","X",17,"yes",0.999879,1,0.534369945526123,"k",0,3,2
"393",79,66,94,19.437908496732,0.94,"bridges20.jpg","bridges","X",17,"yes",0.999879,1,0.534369945526123,"k",0,3,2
"394",79,66,95,15.9156862745098,0.95,"bridges20.jpg","bridges","X",17,"yes",0.999879,1,0.534369945526123,"k",0,3,2
"395",79,66,96,19.3156862745098,0.96,"bridges20.jpg","bridges","X",17,"yes",0.999879,1,0.534369945526123,"k",0,3,2
"396",79,66,97,23.3156862745098,0.97,"bridges20.jpg","bridges","X",17,"yes",0.999879,1,0.534369945526123,"k",0,3,2
"397",79,66,98,21.7156862745098,0.98,"bridges20.jpg","bridges","X",17,"yes",0.999879,1,0.534369945526123,"k",0,3,2
"398",79,66,99,19.0156862745098,0.99,"bridges20.jpg","bridges","X",17,"yes",0.999879,1,0.534369945526123,"k",0,3,2
"399",79,66,100,25.5156862745098,1,"bridges20.jpg","bridges","X",17,"yes",0.999879,1,0.534369945526123,"k",0,3,2
"400",79,66,101,27.8156862745098,1.01,"bridges20.jpg","bridges","X",17,"yes",0.999879,1,0.534369945526123,"k",0,3,2
"401",79,66,102,31.2156862745098,1.02,"bridges20.jpg","bridges","X",17,"yes",0.999879,1,0.534369945526123,"k",0,3,2
"402",79,66,103,27.0156862745098,1.03,"bridges20.jpg","bridges","X",17,"yes",0.999879,1,0.534369945526123,"k",0,3,2
"403",79,66,104,28.6156862745098,1.04,"bridges20.jpg","bridges","X",17,"yes",0.999879,1,0.534369945526123,"k",0,3,2
"404",79,66,105,30.6156862745098,1.05,"bridges20.jpg","bridges","X",17,"yes",0.999879,1,0.534369945526123,"k",0,3,2
"405",79,66,106,28.7156862745098,1.06,"bridges20.jpg","bridges","X",17,"yes",0.999879,1,0.534369945526123,"k",0,3,2
"406",79,66,107,36.6156862745098,1.07,"bridges20.jpg","bridges","X",17,"yes",0.999879,1,0.534369945526123,"k",0,3,2
"407",79,66,108,37.7156862745098,1.08,"bridges20.jpg","bridges","X",17,"yes",0.999879,1,0.534369945526123,"k",0,3,2
"408",79,66,109,38.0156862745098,1.09,"bridges20.jpg","bridges","X",17,"yes",0.999879,1,0.534369945526123,"k",0,3,2
"409",79,66,110,46.7156862745098,1.1,"bridges20.jpg","bridges","X",17,"yes",0.999879,1,0.534369945526123,"k",0,3,2
"410",79,66,111,52.1156862745098,1.11,"bridges20.jpg","bridges","X",17,"yes",0.999879,1,0.534369945526123,"k",0,3,2
"411",79,66,112,52.0338680926916,1.12,"bridges20.jpg","bridges","X",17,"yes",0.999879,1,0.534369945526123,"k",0,3,2
"412",79,66,113,59.5156862745098,1.13,"bridges20.jpg","bridges","X",17,"yes",0.999879,1,0.534369945526123,"k",0,3,2
"413",79,66,114,65.9156862745098,1.14,"bridges20.jpg","bridges","X",17,"yes",0.999879,1,0.534369945526123,"k",0,3,2
"414",79,66,115,69.3156862745098,1.15,"bridges20.jpg","bridges","X",17,"yes",0.999879,1,0.534369945526123,"k",0,3,2
"415",79,66,116,69.7156862745098,1.16,"bridges20.jpg","bridges","X",17,"yes",0.999879,1,0.534369945526123,"k",0,3,2
"416",79,66,117,73.0156862745098,1.17,"bridges20.jpg","bridges","X",17,"yes",0.999879,1,0.534369945526123,"k",0,3,2
"417",79,66,118,80.3156862745098,1.18,"bridges20.jpg","bridges","X",17,"yes",0.999879,1,0.534369945526123,"k",0,3,2
"418",79,66,119,91.2639954532538,1.19,"bridges20.jpg","bridges","X",17,"yes",0.999879,1,0.534369945526123,"k",0,3,2
"419",79,66,120,90.998294970162,1.2,"bridges20.jpg","bridges","X",17,"yes",0.999879,1,0.534369945526123,"k",0,3,2
"420",79,66,121,88.3895993179881,1.21,"bridges20.jpg","bridges","X",17,"yes",0.999879,1,0.534369945526123,"k",0,3,2
"421",79,66,122,85.7809036658142,1.22,"bridges20.jpg","bridges","X",17,"yes",0.999879,1,0.534369945526123,"k",0,3,2
"422",79,66,123,83.1722080136402,1.23,"bridges20.jpg","bridges","X",17,"yes",0.999879,1,0.534369945526123,"k",0,3,2
"423",79,66,124,80.5635123614663,1.24,"bridges20.jpg","bridges","X",17,"yes",0.999879,1,0.534369945526123,"k",0,3,2
"424",79,66,125,77.9548167092924,1.25,"bridges20.jpg","bridges","X",17,"yes",0.999879,1,0.534369945526123,"k",0,3,2
"425",79,66,126,75.3461210571185,1.26,"bridges20.jpg","bridges","X",17,"yes",0.999879,1,0.534369945526123,"k",0,3,2
"426",79,66,127,72.7374254049446,1.27,"bridges20.jpg","bridges","X",17,"yes",0.999879,1,0.534369945526123,"k",0,3,2
"427",79,66,128,70.1287297527707,1.28,"bridges20.jpg","bridges","X",17,"yes",0.999879,1,0.534369945526123,"k",0,3,2
"428",79,66,129,67.5200341005968,1.29,"bridges20.jpg","bridges","X",17,"yes",0.999879,1,0.534369945526123,"k",0,3,2
"429",79,66,130,64.9113384484229,1.3,"bridges20.jpg","bridges","X",17,"yes",0.999879,1,0.534369945526123,"k",0,3,2
"430",79,66,131,62.3026427962489,1.31,"bridges20.jpg","bridges","X",17,"yes",0.999879,1,0.534369945526123,"k",0,3,2
"431",79,66,132,59.693947144075,1.32,"bridges20.jpg","bridges","X",17,"yes",0.999879,1,0.534369945526123,"k",0,3,2
"432",79,66,133,57.0852514919011,1.33,"bridges20.jpg","bridges","X",17,"yes",0.999879,1,0.534369945526123,"k",0,3,2
"433",79,66,134,54.4765558397272,1.34,"bridges20.jpg","bridges","X",17,"yes",0.999879,1,0.534369945526123,"k",0,3,2
"434",79,66,135,51.8678601875533,1.35,"bridges20.jpg","bridges","X",17,"yes",0.999879,1,0.534369945526123,"k",0,3,2
"435",79,66,136,49.2591645353794,1.36,"bridges20.jpg","bridges","X",17,"yes",0.999879,1,0.534369945526123,"k",0,3,2
"436",79,66,137,46.6504688832055,1.37,"bridges20.jpg","bridges","X",17,"yes",0.999879,1,0.534369945526123,"k",0,3,2
"437",79,66,138,44.0417732310315,1.38,"bridges20.jpg","bridges","X",17,"yes",0.999879,1,0.534369945526123,"k",0,3,2
"438",79,66,139,41.4330775788576,1.39,"bridges20.jpg","bridges","X",17,"yes",0.999879,1,0.534369945526123,"k",0,3,2
"439",79,66,140,38.8243819266837,1.4,"bridges20.jpg","bridges","X",17,"yes",0.999879,1,0.534369945526123,"k",0,3,2
"440",79,66,141,36.2156862745098,1.41,"bridges20.jpg","bridges","X",17,"yes",0.999879,1,0.534369945526123,"k",0,3,2
"441",79,66,142,33.6069906223359,1.42,"bridges20.jpg","bridges","X",17,"yes",0.999879,1,0.534369945526123,"k",0,3,2
"442",79,66,143,30.998294970162,1.43,"bridges20.jpg","bridges","X",17,"yes",0.999879,1,0.534369945526123,"k",0,3,2
"443",79,66,144,28.3895993179881,1.44,"bridges20.jpg","bridges","X",17,"yes",0.999879,1,0.534369945526123,"k",0,3,2
"444",79,66,145,25.7809036658142,1.45,"bridges20.jpg","bridges","X",17,"yes",0.999879,1,0.534369945526123,"k",0,3,2
"445",79,66,146,23.1722080136402,1.46,"bridges20.jpg","bridges","X",17,"yes",0.999879,1,0.534369945526123,"k",0,3,2
"446",79,66,147,20.5635123614663,1.47,"bridges20.jpg","bridges","X",17,"yes",0.999879,1,0.534369945526123,"k",0,3,2
"447",79,66,148,17.9548167092924,1.48,"bridges20.jpg","bridges","X",17,"yes",0.999879,1,0.534369945526123,"k",0,3,2
"448",79,66,149,15.3461210571185,1.49,"bridges20.jpg","bridges","X",17,"yes",0.999879,1,0.534369945526123,"k",0,3,2
"449",79,66,150,12.7374254049446,1.5,"bridges20.jpg","bridges","X",17,"yes",0.999879,1,0.534369945526123,"k",0,3,2
"450",79,66,151,10.1548167092924,1.51,"bridges20.jpg","bridges","X",17,"yes",0.999879,1,0.534369945526123,"k",0,3,2
"451",79,66,152,15.9156862745098,1.52,"bridges20.jpg","bridges","X",17,"yes",0.999879,1,0.534369945526123,"k",0,3,2
"452",79,66,153,19.0156862745098,1.53,"bridges20.jpg","bridges","X",17,"yes",0.999879,1,0.534369945526123,"k",0,3,2
"453",79,66,154,31.8156862745098,1.54,"bridges20.jpg","bridges","X",17,"yes",0.999879,1,0.534369945526123,"k",0,3,2
"454",79,66,155,41.5156862745098,1.55,"bridges20.jpg","bridges","X",17,"yes",0.999879,1,0.534369945526123,"k",0,3,2
"455",79,66,156,26.7156862745098,1.56,"bridges20.jpg","bridges","X",17,"yes",0.999879,1,0.534369945526123,"k",0,3,2
"456",79,66,157,23.1156862745098,1.57,"bridges20.jpg","bridges","X",17,"yes",0.999879,1,0.534369945526123,"k",0,3,2
"457",79,66,158,14.2156862745098,1.58,"bridges20.jpg","bridges","X",17,"yes",0.999879,1,0.534369945526123,"k",0,3,2
"458",79,66,159,3.01568627450981,1.59,"bridges20.jpg","bridges","X",17,"yes",0.999879,1,0.534369945526123,"k",0,3,2
"459",79,66,160,-6.98431372549019,1.6,"bridges20.jpg","bridges","X",17,"yes",0.999879,1,0.534369945526123,"k",0,3,2
"460",79,66,161,-20.0843137254902,1.61,"bridges20.jpg","bridges","X",17,"yes",0.999879,1,0.534369945526123,"k",0,3,2
"461",79,66,162,NA,1.62,"bridges20.jpg","bridges","X",17,"yes",0.999879,1,0.534369945526123,"k",0,3,2
"462",79,66,163,NA,1.63,"bridges20.jpg","bridges","X",17,"yes",0.999879,1,0.534369945526123,"k",0,3,2
"463",79,66,164,NA,1.64,"bridges20.jpg","bridges","X",17,"yes",0.999879,1,0.534369945526123,"k",0,3,2
"464",79,66,165,NA,1.65,"bridges20.jpg","bridges","X",17,"yes",0.999879,1,0.534369945526123,"k",0,3,2
"465",79,66,166,NA,1.66,"bridges20.jpg","bridges","X",17,"yes",0.999879,1,0.534369945526123,"k",0,3,2
"466",79,66,167,NA,1.67,"bridges20.jpg","bridges","X",17,"yes",0.999879,1,0.534369945526123,"k",0,3,2
"467",79,66,168,NA,1.68,"bridges20.jpg","bridges","X",17,"yes",0.999879,1,0.534369945526123,"k",0,3,2
"468",79,66,169,NA,1.69,"bridges20.jpg","bridges","X",17,"yes",0.999879,1,0.534369945526123,"k",0,3,2
"469",79,66,170,NA,1.7,"bridges20.jpg","bridges","X",17,"yes",0.999879,1,0.534369945526123,"k",0,3,2
"470",79,66,171,NA,1.71,"bridges20.jpg","bridges","X",17,"yes",0.999879,1,0.534369945526123,"k",0,3,2
"471",79,66,172,NA,1.72,"bridges20.jpg","bridges","X",17,"yes",0.999879,1,0.534369945526123,"k",0,3,2
"472",79,66,173,NA,1.73,"bridges20.jpg","bridges","X",17,"yes",0.999879,1,0.534369945526123,"k",0,3,2
"473",79,66,174,NA,1.74,"bridges20.jpg","bridges","X",17,"yes",0.999879,1,0.534369945526123,"k",0,3,2
"474",79,66,175,NA,1.75,"bridges20.jpg","bridges","X",17,"yes",0.999879,1,0.534369945526123,"k",0,3,2
"475",79,66,176,NA,1.76,"bridges20.jpg","bridges","X",17,"yes",0.999879,1,0.534369945526123,"k",0,3,2
"476",79,66,177,NA,1.77,"bridges20.jpg","bridges","X",17,"yes",0.999879,1,0.534369945526123,"k",0,3,2
"477",79,66,178,NA,1.78,"bridges20.jpg","bridges","X",17,"yes",0.999879,1,0.534369945526123,"k",0,3,2
"478",79,66,179,NA,1.79,"bridges20.jpg","bridges","X",17,"yes",0.999879,1,0.534369945526123,"k",0,3,2
"479",79,66,180,NA,1.8,"bridges20.jpg","bridges","X",17,"yes",0.999879,1,0.534369945526123,"k",0,3,2
"480",79,66,181,NA,1.81,"bridges20.jpg","bridges","X",17,"yes",0.999879,1,0.534369945526123,"k",0,3,2
"481",79,66,182,NA,1.82,"bridges20.jpg","bridges","X",17,"yes",0.999879,1,0.534369945526123,"k",0,3,2
"482",79,66,183,NA,1.83,"bridges20.jpg","bridges","X",17,"yes",0.999879,1,0.534369945526123,"k",0,3,2
"483",79,66,184,NA,1.84,"bridges20.jpg","bridges","X",17,"yes",0.999879,1,0.534369945526123,"k",0,3,2
"484",79,66,185,NA,1.85,"bridges20.jpg","bridges","X",17,"yes",0.999879,1,0.534369945526123,"k",0,3,2
"485",79,66,186,NA,1.86,"bridges20.jpg","bridges","X",17,"yes",0.999879,1,0.534369945526123,"k",0,3,2
"486",79,66,187,NA,1.87,"bridges20.jpg","bridges","X",17,"yes",0.999879,1,0.534369945526123,"k",0,3,2
"487",79,66,188,NA,1.88,"bridges20.jpg","bridges","X",17,"yes",0.999879,1,0.534369945526123,"k",0,3,2
"488",79,66,189,NA,1.89,"bridges20.jpg","bridges","X",17,"yes",0.999879,1,0.534369945526123,"k",0,3,2
"489",79,66,190,NA,1.9,"bridges20.jpg","bridges","X",17,"yes",0.999879,1,0.534369945526123,"k",0,3,2
"490",79,66,191,NA,1.91,"bridges20.jpg","bridges","X",17,"yes",0.999879,1,0.534369945526123,"k",0,3,2
"491",79,66,192,NA,1.92,"bridges20.jpg","bridges","X",17,"yes",0.999879,1,0.534369945526123,"k",0,3,2
"492",79,66,193,NA,1.93,"bridges20.jpg","bridges","X",17,"yes",0.999879,1,0.534369945526123,"k",0,3,2
"493",79,66,194,NA,1.94,"bridges20.jpg","bridges","X",17,"yes",0.999879,1,0.534369945526123,"k",0,3,2
"494",79,66,195,NA,1.95,"bridges20.jpg","bridges","X",17,"yes",0.999879,1,0.534369945526123,"k",0,3,2
"495",79,66,196,NA,1.96,"bridges20.jpg","bridges","X",17,"yes",0.999879,1,0.534369945526123,"k",0,3,2
"496",79,66,197,NA,1.97,"bridges20.jpg","bridges","X",17,"yes",0.999879,1,0.534369945526123,"k",0,3,2
"497",79,66,198,NA,1.98,"bridges20.jpg","bridges","X",17,"yes",0.999879,1,0.534369945526123,"k",0,3,2
"498",79,66,199,NA,1.99,"bridges20.jpg","bridges","X",17,"yes",0.999879,1,0.534369945526123,"k",0,3,2
"499",79,66,200,NA,2,"bridges20.jpg","bridges","X",17,"yes",0.999879,1,0.534369945526123,"k",0,3,2
"500",79,66,201,NA,2.01,"bridges20.jpg","bridges","X",17,"yes",0.999879,1,0.534369945526123,"k",0,3,2
"501",79,66,202,NA,2.02,"bridges20.jpg","bridges","X",17,"yes",0.999879,1,0.534369945526123,"k",0,3,2
"502",79,66,203,NA,2.03,"bridges20.jpg","bridges","X",17,"yes",0.999879,1,0.534369945526123,"k",0,3,2
"503",79,66,204,NA,2.04,"bridges20.jpg","bridges","X",17,"yes",0.999879,1,0.534369945526123,"k",0,3,2
"504",79,66,205,NA,2.05,"bridges20.jpg","bridges","X",17,"yes",0.999879,1,0.534369945526123,"k",0,3,2
"505",79,66,206,NA,2.06,"bridges20.jpg","bridges","X",17,"yes",0.999879,1,0.534369945526123,"k",0,3,2
"506",79,66,207,NA,2.07,"bridges20.jpg","bridges","X",17,"yes",0.999879,1,0.534369945526123,"k",0,3,2
"507",79,66,208,NA,2.08,"bridges20.jpg","bridges","X",17,"yes",0.999879,1,0.534369945526123,"k",0,3,2
"508",79,66,209,NA,2.09,"bridges20.jpg","bridges","X",17,"yes",0.999879,1,0.534369945526123,"k",0,3,2
"509",79,66,210,NA,2.1,"bridges20.jpg","bridges","X",17,"yes",0.999879,1,0.534369945526123,"k",0,3,2
"510",79,66,211,NA,2.11,"bridges20.jpg","bridges","X",17,"yes",0.999879,1,0.534369945526123,"k",0,3,2
"511",79,66,212,NA,2.12,"bridges20.jpg","bridges","X",17,"yes",0.999879,1,0.534369945526123,"k",0,3,2
"512",79,66,213,NA,2.13,"bridges20.jpg","bridges","X",17,"yes",0.999879,1,0.534369945526123,"k",0,3,2
"513",79,66,214,NA,2.14,"bridges20.jpg","bridges","X",17,"yes",0.999879,1,0.534369945526123,"k",0,3,2
"514",79,66,215,NA,2.15,"bridges20.jpg","bridges","X",17,"yes",0.999879,1,0.534369945526123,"k",0,3,2
"515",79,66,216,NA,2.16,"bridges20.jpg","bridges","X",17,"yes",0.999879,1,0.534369945526123,"k",0,3,2
"516",79,66,217,NA,2.17,"bridges20.jpg","bridges","X",17,"yes",0.999879,1,0.534369945526123,"k",0,3,2
"517",79,66,218,NA,2.18,"bridges20.jpg","bridges","X",17,"yes",0.999879,1,0.534369945526123,"k",0,3,2
"518",79,66,219,NA,2.19,"bridges20.jpg","bridges","X",17,"yes",0.999879,1,0.534369945526123,"k",0,3,2
"519",79,66,220,NA,2.2,"bridges20.jpg","bridges","X",17,"yes",0.999879,1,0.534369945526123,"k",0,3,2
"520",79,66,221,NA,2.21,"bridges20.jpg","bridges","X",17,"yes",0.999879,1,0.534369945526123,"k",0,3,2
"521",79,66,222,NA,2.22,"bridges20.jpg","bridges","X",17,"yes",0.999879,1,0.534369945526123,"k",0,3,2
"522",79,66,223,NA,2.23,"bridges20.jpg","bridges","X",17,"yes",0.999879,1,0.534369945526123,"k",0,3,2
"523",79,66,224,NA,2.24,"bridges20.jpg","bridges","X",17,"yes",0.999879,1,0.534369945526123,"k",0,3,2
"524",79,66,225,NA,2.25,"bridges20.jpg","bridges","X",17,"yes",0.999879,1,0.534369945526123,"k",0,3,2
"525",79,66,226,NA,2.26,"bridges20.jpg","bridges","X",17,"yes",0.999879,1,0.534369945526123,"k",0,3,2
"526",79,66,227,NA,2.27,"bridges20.jpg","bridges","X",17,"yes",0.999879,1,0.534369945526123,"k",0,3,2
"527",79,66,228,NA,2.28,"bridges20.jpg","bridges","X",17,"yes",0.999879,1,0.534369945526123,"k",0,3,2
"528",79,66,229,NA,2.29,"bridges20.jpg","bridges","X",17,"yes",0.999879,1,0.534369945526123,"k",0,3,2
"529",79,66,230,NA,2.3,"bridges20.jpg","bridges","X",17,"yes",0.999879,1,0.534369945526123,"k",0,3,2
"530",79,66,231,NA,2.31,"bridges20.jpg","bridges","X",17,"yes",0.999879,1,0.534369945526123,"k",0,3,2
"531",79,66,232,NA,2.32,"bridges20.jpg","bridges","X",17,"yes",0.999879,1,0.534369945526123,"k",0,3,2
"532",79,66,233,NA,2.33,"bridges20.jpg","bridges","X",17,"yes",0.999879,1,0.534369945526123,"k",0,3,2
"533",79,66,234,NA,2.34,"bridges20.jpg","bridges","X",17,"yes",0.999879,1,0.534369945526123,"k",0,3,2
"534",79,66,235,NA,2.35,"bridges20.jpg","bridges","X",17,"yes",0.999879,1,0.534369945526123,"k",0,3,2
"535",79,66,236,NA,2.36,"bridges20.jpg","bridges","X",17,"yes",0.999879,1,0.534369945526123,"k",0,3,2
"536",79,66,237,NA,2.37,"bridges20.jpg","bridges","X",17,"yes",0.999879,1,0.534369945526123,"k",0,3,2
"537",79,66,238,NA,2.38,"bridges20.jpg","bridges","X",17,"yes",0.999879,1,0.534369945526123,"k",0,3,2
"538",79,66,239,NA,2.39,"bridges20.jpg","bridges","X",17,"yes",0.999879,1,0.534369945526123,"k",0,3,2
"539",79,66,240,NA,2.4,"bridges20.jpg","bridges","X",17,"yes",0.999879,1,0.534369945526123,"k",0,3,2
"540",79,66,241,NA,2.41,"bridges20.jpg","bridges","X",17,"yes",0.999879,1,0.534369945526123,"k",0,3,2
"541",79,66,242,NA,2.42,"bridges20.jpg","bridges","X",17,"yes",0.999879,1,0.534369945526123,"k",0,3,2
"542",79,66,243,NA,2.43,"bridges20.jpg","bridges","X",17,"yes",0.999879,1,0.534369945526123,"k",0,3,2
"543",79,66,244,NA,2.44,"bridges20.jpg","bridges","X",17,"yes",0.999879,1,0.534369945526123,"k",0,3,2
"544",79,66,245,NA,2.45,"bridges20.jpg","bridges","X",17,"yes",0.999879,1,0.534369945526123,"k",0,3,2
"545",79,66,246,NA,2.46,"bridges20.jpg","bridges","X",17,"yes",0.999879,1,0.534369945526123,"k",0,3,2
"546",79,66,247,NA,2.47,"bridges20.jpg","bridges","X",17,"yes",0.999879,1,0.534369945526123,"k",0,3,2
"547",79,66,248,NA,2.48,"bridges20.jpg","bridges","X",17,"yes",0.999879,1,0.534369945526123,"k",0,3,2
"548",79,66,249,NA,2.49,"bridges20.jpg","bridges","X",17,"yes",0.999879,1,0.534369945526123,"k",0,3,2
"549",79,66,250,NA,2.5,"bridges20.jpg","bridges","X",17,"yes",0.999879,1,0.534369945526123,"k",0,3,2
"550",79,66,251,NA,2.51,"bridges20.jpg","bridges","X",17,"yes",0.999879,1,0.534369945526123,"k",0,3,2
"551",79,66,252,NA,2.52,"bridges20.jpg","bridges","X",17,"yes",0.999879,1,0.534369945526123,"k",0,3,2
"552",79,66,253,NA,2.53,"bridges20.jpg","bridges","X",17,"yes",0.999879,1,0.534369945526123,"k",0,3,2
"553",79,66,254,NA,2.54,"bridges20.jpg","bridges","X",17,"yes",0.999879,1,0.534369945526123,"k",0,3,2
"554",79,66,255,NA,2.55,"bridges20.jpg","bridges","X",17,"yes",0.999879,1,0.534369945526123,"k",0,3,2
"555",79,66,256,NA,2.56,"bridges20.jpg","bridges","X",17,"yes",0.999879,1,0.534369945526123,"k",0,3,2
"556",79,66,257,NA,2.57,"bridges20.jpg","bridges","X",17,"yes",0.999879,1,0.534369945526123,"k",0,3,2
"557",79,66,258,NA,2.58,"bridges20.jpg","bridges","X",17,"yes",0.999879,1,0.534369945526123,"k",0,3,2
"558",79,66,259,NA,2.59,"bridges20.jpg","bridges","X",17,"yes",0.999879,1,0.534369945526123,"k",0,3,2
"559",79,66,260,NA,2.6,"bridges20.jpg","bridges","X",17,"yes",0.999879,1,0.534369945526123,"k",0,3,2
"560",79,66,261,NA,2.61,"bridges20.jpg","bridges","X",17,"yes",0.999879,1,0.534369945526123,"k",0,3,2
"561",79,66,262,NA,2.62,"bridges20.jpg","bridges","X",17,"yes",0.999879,1,0.534369945526123,"k",0,3,2
"562",79,66,263,NA,2.63,"bridges20.jpg","bridges","X",17,"yes",0.999879,1,0.534369945526123,"k",0,3,2
"563",79,66,264,NA,2.64,"bridges20.jpg","bridges","X",17,"yes",0.999879,1,0.534369945526123,"k",0,3,2
"564",79,66,265,NA,2.65,"bridges20.jpg","bridges","X",17,"yes",0.999879,1,0.534369945526123,"k",0,3,2
"565",79,66,266,NA,2.66,"bridges20.jpg","bridges","X",17,"yes",0.999879,1,0.534369945526123,"k",0,3,2
"566",79,66,267,NA,2.67,"bridges20.jpg","bridges","X",17,"yes",0.999879,1,0.534369945526123,"k",0,3,2
"567",79,66,268,NA,2.68,"bridges20.jpg","bridges","X",17,"yes",0.999879,1,0.534369945526123,"k",0,3,2
"568",79,66,269,NA,2.69,"bridges20.jpg","bridges","X",17,"yes",0.999879,1,0.534369945526123,"k",0,3,2
"569",79,66,270,NA,2.7,"bridges20.jpg","bridges","X",17,"yes",0.999879,1,0.534369945526123,"k",0,3,2
"570",79,66,271,NA,2.71,"bridges20.jpg","bridges","X",17,"yes",0.999879,1,0.534369945526123,"k",0,3,2
"571",79,66,272,NA,2.72,"bridges20.jpg","bridges","X",17,"yes",0.999879,1,0.534369945526123,"k",0,3,2
"572",79,66,273,NA,2.73,"bridges20.jpg","bridges","X",17,"yes",0.999879,1,0.534369945526123,"k",0,3,2
"573",79,66,274,NA,2.74,"bridges20.jpg","bridges","X",17,"yes",0.999879,1,0.534369945526123,"k",0,3,2
"574",79,66,275,NA,2.75,"bridges20.jpg","bridges","X",17,"yes",0.999879,1,0.534369945526123,"k",0,3,2
"575",79,66,276,NA,2.76,"bridges20.jpg","bridges","X",17,"yes",0.999879,1,0.534369945526123,"k",0,3,2
"576",79,66,277,NA,2.77,"bridges20.jpg","bridges","X",17,"yes",0.999879,1,0.534369945526123,"k",0,3,2
"577",79,66,278,NA,2.78,"bridges20.jpg","bridges","X",17,"yes",0.999879,1,0.534369945526123,"k",0,3,2
"578",79,66,279,NA,2.79,"bridges20.jpg","bridges","X",17,"yes",0.999879,1,0.534369945526123,"k",0,3,2
"579",79,66,280,NA,2.8,"bridges20.jpg","bridges","X",17,"yes",0.999879,1,0.534369945526123,"k",0,3,2
"580",79,66,281,NA,2.81,"bridges20.jpg","bridges","X",17,"yes",0.999879,1,0.534369945526123,"k",0,3,2
"581",79,66,282,NA,2.82,"bridges20.jpg","bridges","X",17,"yes",0.999879,1,0.534369945526123,"k",0,3,2
"582",79,66,283,NA,2.83,"bridges20.jpg","bridges","X",17,"yes",0.999879,1,0.534369945526123,"k",0,3,2
"583",79,66,284,NA,2.84,"bridges20.jpg","bridges","X",17,"yes",0.999879,1,0.534369945526123,"k",0,3,2
"584",79,66,285,NA,2.85,"bridges20.jpg","bridges","X",17,"yes",0.999879,1,0.534369945526123,"k",0,3,2
"585",79,66,286,NA,2.86,"bridges20.jpg","bridges","X",17,"yes",0.999879,1,0.534369945526123,"k",0,3,2
"586",79,66,287,NA,2.87,"bridges20.jpg","bridges","X",17,"yes",0.999879,1,0.534369945526123,"k",0,3,2
"587",79,66,288,NA,2.88,"bridges20.jpg","bridges","X",17,"yes",0.999879,1,0.534369945526123,"k",0,3,2
"588",79,66,289,NA,2.89,"bridges20.jpg","bridges","X",17,"yes",0.999879,1,0.534369945526123,"k",0,3,2
"589",79,66,290,NA,2.9,"bridges20.jpg","bridges","X",17,"yes",0.999879,1,0.534369945526123,"k",0,3,2
"590",79,66,291,NA,2.91,"bridges20.jpg","bridges","X",17,"yes",0.999879,1,0.534369945526123,"k",0,3,2
"591",79,66,292,NA,2.92,"bridges20.jpg","bridges","X",17,"yes",0.999879,1,0.534369945526123,"k",0,3,2
"592",79,66,293,NA,2.93,"bridges20.jpg","bridges","X",17,"yes",0.999879,1,0.534369945526123,"k",0,3,2
"593",79,66,294,NA,2.94,"bridges20.jpg","bridges","X",17,"yes",0.999879,1,0.534369945526123,"k",0,3,2
"594",79,66,295,NA,2.95,"bridges20.jpg","bridges","X",17,"yes",0.999879,1,0.534369945526123,"k",0,3,2
"595",79,66,296,NA,2.96,"bridges20.jpg","bridges","X",17,"yes",0.999879,1,0.534369945526123,"k",0,3,2
"596",79,66,297,NA,2.97,"bridges20.jpg","bridges","X",17,"yes",0.999879,1,0.534369945526123,"k",0,3,2
"597",79,66,298,NA,2.98,"bridges20.jpg","bridges","X",17,"yes",0.999879,1,0.534369945526123,"k",0,3,2
"598",79,16,0,-12.9137254901961,0,"mountains8.jpg","mountains","X",22,"no",0.999878,1,0.473570585250854,"j",0,4,3.5
"599",79,16,1,-0.613725490196134,0.01,"mountains8.jpg","mountains","X",22,"no",0.999878,1,0.473570585250854,"j",0,4,3.5
"600",79,16,2,13.6862745098039,0.02,"mountains8.jpg","mountains","X",22,"no",0.999878,1,0.473570585250854,"j",0,4,3.5
"601",79,16,3,0.186274509803866,0.03,"mountains8.jpg","mountains","X",22,"no",0.999878,1,0.473570585250854,"j",0,4,3.5
"602",79,16,4,-0.713725490196134,0.04,"mountains8.jpg","mountains","X",22,"no",0.999878,1,0.473570585250854,"j",0,4,3.5
"603",79,16,5,-0.613725490196134,0.05,"mountains8.jpg","mountains","X",22,"no",0.999878,1,0.473570585250854,"j",0,4,3.5
"604",79,16,6,0.886274509803866,0.06,"mountains8.jpg","mountains","X",22,"no",0.999878,1,0.473570585250854,"j",0,4,3.5
"605",79,16,7,-0.713725490196134,0.07,"mountains8.jpg","mountains","X",22,"no",0.999878,1,0.473570585250854,"j",0,4,3.5
"606",79,16,8,1.78627450980387,0.08,"mountains8.jpg","mountains","X",22,"no",0.999878,1,0.473570585250854,"j",0,4,3.5
"607",79,16,9,8.08627450980387,0.09,"mountains8.jpg","mountains","X",22,"no",0.999878,1,0.473570585250854,"j",0,4,3.5
"608",79,16,10,-9.01372549019613,0.1,"mountains8.jpg","mountains","X",22,"no",0.999878,1,0.473570585250854,"j",0,4,3.5
"609",79,16,11,-10.9137254901961,0.11,"mountains8.jpg","mountains","X",22,"no",0.999878,1,0.473570585250854,"j",0,4,3.5
"610",79,16,12,-12.5137254901961,0.12,"mountains8.jpg","mountains","X",22,"no",0.999878,1,0.473570585250854,"j",0,4,3.5
"611",79,16,13,-13.3137254901961,0.13,"mountains8.jpg","mountains","X",22,"no",0.999878,1,0.473570585250854,"j",0,4,3.5
"612",79,16,14,-9.41372549019613,0.14,"mountains8.jpg","mountains","X",22,"no",0.999878,1,0.473570585250854,"j",0,4,3.5
"613",79,16,15,-13.2137254901961,0.15,"mountains8.jpg","mountains","X",22,"no",0.999878,1,0.473570585250854,"j",0,4,3.5
"614",79,16,16,-16.1137254901961,0.16,"mountains8.jpg","mountains","X",22,"no",0.999878,1,0.473570585250854,"j",0,4,3.5
"615",79,16,17,-21.2137254901961,0.17,"mountains8.jpg","mountains","X",22,"no",0.999878,1,0.473570585250854,"j",0,4,3.5
"616",79,16,18,-21.6137254901961,0.18,"mountains8.jpg","mountains","X",22,"no",0.999878,1,0.473570585250854,"j",0,4,3.5
"617",79,16,19,-44.0137254901961,0.19,"mountains8.jpg","mountains","X",22,"no",0.999878,1,0.473570585250854,"j",0,4,3.5
"618",79,16,20,-55.4137254901961,0.2,"mountains8.jpg","mountains","X",22,"no",0.999878,1,0.473570585250854,"j",0,4,3.5
"619",79,16,21,-57.7137254901961,0.21,"mountains8.jpg","mountains","X",22,"no",0.999878,1,0.473570585250854,"j",0,4,3.5
"620",79,16,22,-68.8137254901961,0.22,"mountains8.jpg","mountains","X",22,"no",0.999878,1,0.473570585250854,"j",0,4,3.5
"621",79,16,23,-64.7137254901961,0.23,"mountains8.jpg","mountains","X",22,"no",0.999878,1,0.473570585250854,"j",0,4,3.5
"622",79,16,24,-76.8137254901961,0.24,"mountains8.jpg","mountains","X",22,"no",0.999878,1,0.473570585250854,"j",0,4,3.5
"623",79,16,25,-79.4137254901961,0.25,"mountains8.jpg","mountains","X",22,"no",0.999878,1,0.473570585250854,"j",0,4,3.5
"624",79,16,26,-82.8137254901961,0.26,"mountains8.jpg","mountains","X",22,"no",0.999878,1,0.473570585250854,"j",0,4,3.5
"625",79,16,27,-89.4137254901961,0.27,"mountains8.jpg","mountains","X",22,"no",0.999878,1,0.473570585250854,"j",0,4,3.5
"626",79,16,28,-93.4955436720143,0.28,"mountains8.jpg","mountains","X",22,"no",0.999878,1,0.473570585250854,"j",0,4,3.5
"627",79,16,29,-109.647058823529,0.29,"mountains8.jpg","mountains","X",22,"no",0.999878,1,0.473570585250854,"j",0,4,3.5
"628",79,16,30,-113.813725490196,0.3,"mountains8.jpg","mountains","X",22,"no",0.999878,1,0.473570585250854,"j",0,4,3.5
"629",79,16,31,-104.413725490196,0.31,"mountains8.jpg","mountains","X",22,"no",0.999878,1,0.473570585250854,"j",0,4,3.5
"630",79,16,32,-104.613725490196,0.32,"mountains8.jpg","mountains","X",22,"no",0.999878,1,0.473570585250854,"j",0,4,3.5
"631",79,16,33,-101.213725490196,0.33,"mountains8.jpg","mountains","X",22,"no",0.999878,1,0.473570585250854,"j",0,4,3.5
"632",79,16,34,-116.113725490196,0.34,"mountains8.jpg","mountains","X",22,"no",0.999878,1,0.473570585250854,"j",0,4,3.5
"633",79,16,35,-96.8137254901961,0.35,"mountains8.jpg","mountains","X",22,"no",0.999878,1,0.473570585250854,"j",0,4,3.5
"634",79,16,36,-107.713725490196,0.36,"mountains8.jpg","mountains","X",22,"no",0.999878,1,0.473570585250854,"j",0,4,3.5
"635",79,16,37,-110.513725490196,0.37,"mountains8.jpg","mountains","X",22,"no",0.999878,1,0.473570585250854,"j",0,4,3.5
"636",79,16,38,-122.713725490196,0.38,"mountains8.jpg","mountains","X",22,"no",0.999878,1,0.473570585250854,"j",0,4,3.5
"637",79,16,39,-131.713725490196,0.39,"mountains8.jpg","mountains","X",22,"no",0.999878,1,0.473570585250854,"j",0,4,3.5
"638",79,16,40,-133.913725490196,0.4,"mountains8.jpg","mountains","X",22,"no",0.999878,1,0.473570585250854,"j",0,4,3.5
"639",79,16,41,-154.513725490196,0.41,"mountains8.jpg","mountains","X",22,"no",0.999878,1,0.473570585250854,"j",0,4,3.5
"640",79,16,42,-153.913725490196,0.42,"mountains8.jpg","mountains","X",22,"no",0.999878,1,0.473570585250854,"j",0,4,3.5
"641",79,16,43,-158.913725490196,0.43,"mountains8.jpg","mountains","X",22,"no",0.999878,1,0.473570585250854,"j",0,4,3.5
"642",79,16,44,-159.813725490196,0.44,"mountains8.jpg","mountains","X",22,"no",0.999878,1,0.473570585250854,"j",0,4,3.5
"643",79,16,45,-160.613725490196,0.45,"mountains8.jpg","mountains","X",22,"no",0.999878,1,0.473570585250854,"j",0,4,3.5
"644",79,16,46,-161.222816399287,0.46,"mountains8.jpg","mountains","X",22,"no",0.999878,1,0.473570585250854,"j",0,4,3.5
"645",79,16,47,-168.535947712418,0.47,"mountains8.jpg","mountains","X",22,"no",0.999878,1,0.473570585250854,"j",0,4,3.5
"646",79,16,48,-170.713725490196,0.48,"mountains8.jpg","mountains","X",22,"no",0.999878,1,0.473570585250854,"j",0,4,3.5
"647",79,16,49,-180.613725490196,0.49,"mountains8.jpg","mountains","X",22,"no",0.999878,1,0.473570585250854,"j",0,4,3.5
"648",79,16,50,-181.713725490196,0.5,"mountains8.jpg","mountains","X",22,"no",0.999878,1,0.473570585250854,"j",0,4,3.5
"649",79,16,51,-175.713725490196,0.51,"mountains8.jpg","mountains","X",22,"no",0.999878,1,0.473570585250854,"j",0,4,3.5
"650",79,16,52,-175.713725490196,0.52,"mountains8.jpg","mountains","X",22,"no",0.999878,1,0.473570585250854,"j",0,4,3.5
"651",79,16,53,-184.913725490196,0.53,"mountains8.jpg","mountains","X",22,"no",0.999878,1,0.473570585250854,"j",0,4,3.5
"652",79,16,54,-187.113725490196,0.54,"mountains8.jpg","mountains","X",22,"no",0.999878,1,0.473570585250854,"j",0,4,3.5
"653",79,16,55,-200.713725490196,0.55,"mountains8.jpg","mountains","X",22,"no",0.999878,1,0.473570585250854,"j",0,4,3.5
"654",79,16,56,-202.677361853833,0.56,"mountains8.jpg","mountains","X",22,"no",0.999878,1,0.473570585250854,"j",0,4,3.5
"655",79,16,57,-202.413725490196,0.57,"mountains8.jpg","mountains","X",22,"no",0.999878,1,0.473570585250854,"j",0,4,3.5
"656",79,16,58,-192.313725490196,0.58,"mountains8.jpg","mountains","X",22,"no",0.999878,1,0.473570585250854,"j",0,4,3.5
"657",79,16,59,-202.091503267974,0.59,"mountains8.jpg","mountains","X",22,"no",0.999878,1,0.473570585250854,"j",0,4,3.5
"658",79,16,60,-206.913725490196,0.6,"mountains8.jpg","mountains","X",22,"no",0.999878,1,0.473570585250854,"j",0,4,3.5
"659",79,16,61,-214.613725490196,0.61,"mountains8.jpg","mountains","X",22,"no",0.999878,1,0.473570585250854,"j",0,4,3.5
"660",79,16,62,-203.613725490196,0.62,"mountains8.jpg","mountains","X",22,"no",0.999878,1,0.473570585250854,"j",0,4,3.5
"661",79,16,63,-211.213725490196,0.63,"mountains8.jpg","mountains","X",22,"no",0.999878,1,0.473570585250854,"j",0,4,3.5
"662",79,16,64,-209.413725490196,0.64,"mountains8.jpg","mountains","X",22,"no",0.999878,1,0.473570585250854,"j",0,4,3.5
"663",79,16,65,-197.713725490196,0.65,"mountains8.jpg","mountains","X",22,"no",0.999878,1,0.473570585250854,"j",0,4,3.5
"664",79,16,66,-207.813725490196,0.66,"mountains8.jpg","mountains","X",22,"no",0.999878,1,0.473570585250854,"j",0,4,3.5
"665",79,16,67,-202.813725490196,0.67,"mountains8.jpg","mountains","X",22,"no",0.999878,1,0.473570585250854,"j",0,4,3.5
"666",79,16,68,-202.413725490196,0.68,"mountains8.jpg","mountains","X",22,"no",0.999878,1,0.473570585250854,"j",0,4,3.5
"667",79,16,69,-209.113725490196,0.69,"mountains8.jpg","mountains","X",22,"no",0.999878,1,0.473570585250854,"j",0,4,3.5
"668",79,16,70,-229.213725490196,0.7,"mountains8.jpg","mountains","X",22,"no",0.999878,1,0.473570585250854,"j",0,4,3.5
"669",79,16,71,-230.613725490196,0.71,"mountains8.jpg","mountains","X",22,"no",0.999878,1,0.473570585250854,"j",0,4,3.5
"670",79,16,72,-225.913725490196,0.72,"mountains8.jpg","mountains","X",22,"no",0.999878,1,0.473570585250854,"j",0,4,3.5
"671",79,16,73,-219.213725490196,0.73,"mountains8.jpg","mountains","X",22,"no",0.999878,1,0.473570585250854,"j",0,4,3.5
"672",79,16,74,-222.813725490196,0.74,"mountains8.jpg","mountains","X",22,"no",0.999878,1,0.473570585250854,"j",0,4,3.5
"673",79,16,75,-226.213725490196,0.75,"mountains8.jpg","mountains","X",22,"no",0.999878,1,0.473570585250854,"j",0,4,3.5
"674",79,16,76,-230.013725490196,0.76,"mountains8.jpg","mountains","X",22,"no",0.999878,1,0.473570585250854,"j",0,4,3.5
"675",79,16,77,-235.513725490196,0.77,"mountains8.jpg","mountains","X",22,"no",0.999878,1,0.473570585250854,"j",0,4,3.5
"676",79,16,78,-242.813725490196,0.78,"mountains8.jpg","mountains","X",22,"no",0.999878,1,0.473570585250854,"j",0,4,3.5
"677",79,16,79,-246.513725490196,0.79,"mountains8.jpg","mountains","X",22,"no",0.999878,1,0.473570585250854,"j",0,4,3.5
"678",79,16,80,-240.213725490196,0.8,"mountains8.jpg","mountains","X",22,"no",0.999878,1,0.473570585250854,"j",0,4,3.5
"679",79,16,81,-244.813725490196,0.81,"mountains8.jpg","mountains","X",22,"no",0.999878,1,0.473570585250854,"j",0,4,3.5
"680",79,16,82,-251.613725490196,0.82,"mountains8.jpg","mountains","X",22,"no",0.999878,1,0.473570585250854,"j",0,4,3.5
"681",79,16,83,-263.113725490196,0.83,"mountains8.jpg","mountains","X",22,"no",0.999878,1,0.473570585250854,"j",0,4,3.5
"682",79,16,84,-254.713725490196,0.84,"mountains8.jpg","mountains","X",22,"no",0.999878,1,0.473570585250854,"j",0,4,3.5
"683",79,16,85,-257.113725490196,0.85,"mountains8.jpg","mountains","X",22,"no",0.999878,1,0.473570585250854,"j",0,4,3.5
"684",79,16,86,-258.513725490196,0.86,"mountains8.jpg","mountains","X",22,"no",0.999878,1,0.473570585250854,"j",0,4,3.5
"685",79,16,87,-246.913725490196,0.87,"mountains8.jpg","mountains","X",22,"no",0.999878,1,0.473570585250854,"j",0,4,3.5
"686",79,16,88,-249.713725490196,0.88,"mountains8.jpg","mountains","X",22,"no",0.999878,1,0.473570585250854,"j",0,4,3.5
"687",79,16,89,-251.313725490196,0.89,"mountains8.jpg","mountains","X",22,"no",0.999878,1,0.473570585250854,"j",0,4,3.5
"688",79,16,90,-266.313725490196,0.9,"mountains8.jpg","mountains","X",22,"no",0.999878,1,0.473570585250854,"j",0,4,3.5
"689",79,16,91,-269.113725490196,0.91,"mountains8.jpg","mountains","X",22,"no",0.999878,1,0.473570585250854,"j",0,4,3.5
"690",79,16,92,-273.012431636525,0.92,"mountains8.jpg","mountains","X",22,"no",0.999878,1,0.473570585250854,"j",0,4,3.5
"691",79,16,93,-275.279222725641,0.93,"mountains8.jpg","mountains","X",22,"no",0.999878,1,0.473570585250854,"j",0,4,3.5
"692",79,16,94,-275.236094269947,0.94,"mountains8.jpg","mountains","X",22,"no",0.999878,1,0.473570585250854,"j",0,4,3.5
"693",79,16,95,-275.195122237038,0.95,"mountains8.jpg","mountains","X",22,"no",0.999878,1,0.473570585250854,"j",0,4,3.5
"694",79,16,96,-275.151993781345,0.96,"mountains8.jpg","mountains","X",22,"no",0.999878,1,0.473570585250854,"j",0,4,3.5
"695",79,16,97,-275.108865325651,0.97,"mountains8.jpg","mountains","X",22,"no",0.999878,1,0.473570585250854,"j",0,4,3.5
"696",79,16,98,-275.065736869957,0.98,"mountains8.jpg","mountains","X",22,"no",0.999878,1,0.473570585250854,"j",0,4,3.5
"697",79,16,99,-275.022608414263,0.99,"mountains8.jpg","mountains","X",22,"no",0.999878,1,0.473570585250854,"j",0,4,3.5
"698",79,16,100,-274.97947995857,1,"mountains8.jpg","mountains","X",22,"no",0.999878,1,0.473570585250854,"j",0,4,3.5
"699",79,16,101,-274.936351502876,1.01,"mountains8.jpg","mountains","X",22,"no",0.999878,1,0.473570585250854,"j",0,4,3.5
"700",79,16,102,-274.893223047182,1.02,"mountains8.jpg","mountains","X",22,"no",0.999878,1,0.473570585250854,"j",0,4,3.5
"701",79,16,103,-274.850094591489,1.03,"mountains8.jpg","mountains","X",22,"no",0.999878,1,0.473570585250854,"j",0,4,3.5
"702",79,16,104,-274.806966135795,1.04,"mountains8.jpg","mountains","X",22,"no",0.999878,1,0.473570585250854,"j",0,4,3.5
"703",79,16,105,-274.763837680101,1.05,"mountains8.jpg","mountains","X",22,"no",0.999878,1,0.473570585250854,"j",0,4,3.5
"704",79,16,106,-274.720709224407,1.06,"mountains8.jpg","mountains","X",22,"no",0.999878,1,0.473570585250854,"j",0,4,3.5
"705",79,16,107,-274.677580768714,1.07,"mountains8.jpg","mountains","X",22,"no",0.999878,1,0.473570585250854,"j",0,4,3.5
"706",79,16,108,-274.63445231302,1.08,"mountains8.jpg","mountains","X",22,"no",0.999878,1,0.473570585250854,"j",0,4,3.5
"707",79,16,109,-274.591323857326,1.09,"mountains8.jpg","mountains","X",22,"no",0.999878,1,0.473570585250854,"j",0,4,3.5
"708",79,16,110,-274.548195401632,1.1,"mountains8.jpg","mountains","X",22,"no",0.999878,1,0.473570585250854,"j",0,4,3.5
"709",79,16,111,-274.505066945939,1.11,"mountains8.jpg","mountains","X",22,"no",0.999878,1,0.473570585250854,"j",0,4,3.5
"710",79,16,112,-274.45978206746,1.12,"mountains8.jpg","mountains","X",22,"no",0.999878,1,0.473570585250854,"j",0,4,3.5
"711",79,16,113,-274.414497188982,1.13,"mountains8.jpg","mountains","X",22,"no",0.999878,1,0.473570585250854,"j",0,4,3.5
"712",79,16,114,-274.371368733288,1.14,"mountains8.jpg","mountains","X",22,"no",0.999878,1,0.473570585250854,"j",0,4,3.5
"713",79,16,115,-274.328240277595,1.15,"mountains8.jpg","mountains","X",22,"no",0.999878,1,0.473570585250854,"j",0,4,3.5
"714",79,16,116,-274.285111821901,1.16,"mountains8.jpg","mountains","X",22,"no",0.999878,1,0.473570585250854,"j",0,4,3.5
"715",79,16,117,-274.241983366207,1.17,"mountains8.jpg","mountains","X",22,"no",0.999878,1,0.473570585250854,"j",0,4,3.5
"716",79,16,118,-274.198854910513,1.18,"mountains8.jpg","mountains","X",22,"no",0.999878,1,0.473570585250854,"j",0,4,3.5
"717",79,16,119,-274.157882877604,1.19,"mountains8.jpg","mountains","X",22,"no",0.999878,1,0.473570585250854,"j",0,4,3.5
"718",79,16,120,-274.116910844695,1.2,"mountains8.jpg","mountains","X",22,"no",0.999878,1,0.473570585250854,"j",0,4,3.5
"719",79,16,121,-274.073782389002,1.21,"mountains8.jpg","mountains","X",22,"no",0.999878,1,0.473570585250854,"j",0,4,3.5
"720",79,16,122,-274.030653933308,1.22,"mountains8.jpg","mountains","X",22,"no",0.999878,1,0.473570585250854,"j",0,4,3.5
"721",79,16,123,-273.987525477614,1.23,"mountains8.jpg","mountains","X",22,"no",0.999878,1,0.473570585250854,"j",0,4,3.5
"722",79,16,124,-273.94439702192,1.24,"mountains8.jpg","mountains","X",22,"no",0.999878,1,0.473570585250854,"j",0,4,3.5
"723",79,16,125,-273.901268566227,1.25,"mountains8.jpg","mountains","X",22,"no",0.999878,1,0.473570585250854,"j",0,4,3.5
"724",79,16,126,-273.858140110533,1.26,"mountains8.jpg","mountains","X",22,"no",0.999878,1,0.473570585250854,"j",0,4,3.5
"725",79,16,127,-273.815011654839,1.27,"mountains8.jpg","mountains","X",22,"no",0.999878,1,0.473570585250854,"j",0,4,3.5
"726",79,16,128,-273.771883199145,1.28,"mountains8.jpg","mountains","X",22,"no",0.999878,1,0.473570585250854,"j",0,4,3.5
"727",79,16,129,-273.728754743452,1.29,"mountains8.jpg","mountains","X",22,"no",0.999878,1,0.473570585250854,"j",0,4,3.5
"728",79,16,130,-273.685626287758,1.3,"mountains8.jpg","mountains","X",22,"no",0.999878,1,0.473570585250854,"j",0,4,3.5
"729",79,16,131,-273.642497832064,1.31,"mountains8.jpg","mountains","X",22,"no",0.999878,1,0.473570585250854,"j",0,4,3.5
"730",79,16,132,-273.599369376371,1.32,"mountains8.jpg","mountains","X",22,"no",0.999878,1,0.473570585250854,"j",0,4,3.5
"731",79,16,133,-273.556240920677,1.33,"mountains8.jpg","mountains","X",22,"no",0.999878,1,0.473570585250854,"j",0,4,3.5
"732",79,16,134,-273.513112464983,1.34,"mountains8.jpg","mountains","X",22,"no",0.999878,1,0.473570585250854,"j",0,4,3.5
"733",79,16,135,-273.469984009289,1.35,"mountains8.jpg","mountains","X",22,"no",0.999878,1,0.473570585250854,"j",0,4,3.5
"734",79,16,136,-273.426855553596,1.36,"mountains8.jpg","mountains","X",22,"no",0.999878,1,0.473570585250854,"j",0,4,3.5
"735",79,16,137,-273.383727097902,1.37,"mountains8.jpg","mountains","X",22,"no",0.999878,1,0.473570585250854,"j",0,4,3.5
"736",79,16,138,-273.340598642208,1.38,"mountains8.jpg","mountains","X",22,"no",0.999878,1,0.473570585250854,"j",0,4,3.5
"737",79,16,139,-273.297470186514,1.39,"mountains8.jpg","mountains","X",22,"no",0.999878,1,0.473570585250854,"j",0,4,3.5
"738",79,16,140,-273.254341730821,1.4,"mountains8.jpg","mountains","X",22,"no",0.999878,1,0.473570585250854,"j",0,4,3.5
"739",79,16,141,-273.211213275127,1.41,"mountains8.jpg","mountains","X",22,"no",0.999878,1,0.473570585250854,"j",0,4,3.5
"740",79,16,142,-273.168084819433,1.42,"mountains8.jpg","mountains","X",22,"no",0.999878,1,0.473570585250854,"j",0,4,3.5
"741",79,16,143,-273.12495636374,1.43,"mountains8.jpg","mountains","X",22,"no",0.999878,1,0.473570585250854,"j",0,4,3.5
"742",79,16,144,-273.081827908046,1.44,"mountains8.jpg","mountains","X",22,"no",0.999878,1,0.473570585250854,"j",0,4,3.5
"743",79,16,145,-273.038699452352,1.45,"mountains8.jpg","mountains","X",22,"no",0.999878,1,0.473570585250854,"j",0,4,3.5
"744",79,16,146,-272.995570996658,1.46,"mountains8.jpg","mountains","X",22,"no",0.999878,1,0.473570585250854,"j",0,4,3.5
"745",79,16,147,-272.952442540965,1.47,"mountains8.jpg","mountains","X",22,"no",0.999878,1,0.473570585250854,"j",0,4,3.5
"746",79,16,148,-272.909314085271,1.48,"mountains8.jpg","mountains","X",22,"no",0.999878,1,0.473570585250854,"j",0,4,3.5
"747",79,16,149,-272.866185629577,1.49,"mountains8.jpg","mountains","X",22,"no",0.999878,1,0.473570585250854,"j",0,4,3.5
"748",79,16,150,-272.823057173884,1.5,"mountains8.jpg","mountains","X",22,"no",0.999878,1,0.473570585250854,"j",0,4,3.5
"749",79,16,151,-272.77992871819,1.51,"mountains8.jpg","mountains","X",22,"no",0.999878,1,0.473570585250854,"j",0,4,3.5
"750",79,16,152,-272.736800262496,1.52,"mountains8.jpg","mountains","X",22,"no",0.999878,1,0.473570585250854,"j",0,4,3.5
"751",79,16,153,-272.693671806802,1.53,"mountains8.jpg","mountains","X",22,"no",0.999878,1,0.473570585250854,"j",0,4,3.5
"752",79,16,154,-272.650543351109,1.54,"mountains8.jpg","mountains","X",22,"no",0.999878,1,0.473570585250854,"j",0,4,3.5
"753",79,16,155,-272.607414895415,1.55,"mountains8.jpg","mountains","X",22,"no",0.999878,1,0.473570585250854,"j",0,4,3.5
"754",79,16,156,-272.564286439721,1.56,"mountains8.jpg","mountains","X",22,"no",0.999878,1,0.473570585250854,"j",0,4,3.5
"755",79,16,157,-272.521157984027,1.57,"mountains8.jpg","mountains","X",22,"no",0.999878,1,0.473570585250854,"j",0,4,3.5
"756",79,16,158,-272.478029528334,1.58,"mountains8.jpg","mountains","X",22,"no",0.999878,1,0.473570585250854,"j",0,4,3.5
"757",79,16,159,-272.43490107264,1.59,"mountains8.jpg","mountains","X",22,"no",0.999878,1,0.473570585250854,"j",0,4,3.5
"758",79,16,160,-272.391772616946,1.6,"mountains8.jpg","mountains","X",22,"no",0.999878,1,0.473570585250854,"j",0,4,3.5
"759",79,16,161,-272.348644161253,1.61,"mountains8.jpg","mountains","X",22,"no",0.999878,1,0.473570585250854,"j",0,4,3.5
"760",79,16,162,-272.305515705559,1.62,"mountains8.jpg","mountains","X",22,"no",0.999878,1,0.473570585250854,"j",0,4,3.5
"761",79,16,163,-272.262387249865,1.63,"mountains8.jpg","mountains","X",22,"no",0.999878,1,0.473570585250854,"j",0,4,3.5
"762",79,16,164,-272.219258794171,1.64,"mountains8.jpg","mountains","X",22,"no",0.999878,1,0.473570585250854,"j",0,4,3.5
"763",79,16,165,-272.176130338478,1.65,"mountains8.jpg","mountains","X",22,"no",0.999878,1,0.473570585250854,"j",0,4,3.5
"764",79,16,166,-272.133001882784,1.66,"mountains8.jpg","mountains","X",22,"no",0.999878,1,0.473570585250854,"j",0,4,3.5
"765",79,16,167,-272.08987342709,1.67,"mountains8.jpg","mountains","X",22,"no",0.999878,1,0.473570585250854,"j",0,4,3.5
"766",79,16,168,-272.046744971396,1.68,"mountains8.jpg","mountains","X",22,"no",0.999878,1,0.473570585250854,"j",0,4,3.5
"767",79,16,169,-272.003616515703,1.69,"mountains8.jpg","mountains","X",22,"no",0.999878,1,0.473570585250854,"j",0,4,3.5
"768",79,16,170,-271.960488060009,1.7,"mountains8.jpg","mountains","X",22,"no",0.999878,1,0.473570585250854,"j",0,4,3.5
"769",79,16,171,-271.917359604315,1.71,"mountains8.jpg","mountains","X",22,"no",0.999878,1,0.473570585250854,"j",0,4,3.5
"770",79,16,172,-271.874231148622,1.72,"mountains8.jpg","mountains","X",22,"no",0.999878,1,0.473570585250854,"j",0,4,3.5
"771",79,16,173,-271.831102692928,1.73,"mountains8.jpg","mountains","X",22,"no",0.999878,1,0.473570585250854,"j",0,4,3.5
"772",79,16,174,-271.787974237234,1.74,"mountains8.jpg","mountains","X",22,"no",0.999878,1,0.473570585250854,"j",0,4,3.5
"773",79,16,175,-271.74484578154,1.75,"mountains8.jpg","mountains","X",22,"no",0.999878,1,0.473570585250854,"j",0,4,3.5
"774",79,16,176,-271.701717325847,1.76,"mountains8.jpg","mountains","X",22,"no",0.999878,1,0.473570585250854,"j",0,4,3.5
"775",79,16,177,-271.658588870153,1.77,"mountains8.jpg","mountains","X",22,"no",0.999878,1,0.473570585250854,"j",0,4,3.5
"776",79,16,178,-271.615460414459,1.78,"mountains8.jpg","mountains","X",22,"no",0.999878,1,0.473570585250854,"j",0,4,3.5
"777",79,16,179,-271.572331958766,1.79,"mountains8.jpg","mountains","X",22,"no",0.999878,1,0.473570585250854,"j",0,4,3.5
"778",79,16,180,-271.529203503072,1.8,"mountains8.jpg","mountains","X",22,"no",0.999878,1,0.473570585250854,"j",0,4,3.5
"779",79,16,181,-271.486075047378,1.81,"mountains8.jpg","mountains","X",22,"no",0.999878,1,0.473570585250854,"j",0,4,3.5
"780",79,16,182,-271.442946591684,1.82,"mountains8.jpg","mountains","X",22,"no",0.999878,1,0.473570585250854,"j",0,4,3.5
"781",79,16,183,-271.399818135991,1.83,"mountains8.jpg","mountains","X",22,"no",0.999878,1,0.473570585250854,"j",0,4,3.5
"782",79,16,184,-271.356689680297,1.84,"mountains8.jpg","mountains","X",22,"no",0.999878,1,0.473570585250854,"j",0,4,3.5
"783",79,16,185,-271.313561224603,1.85,"mountains8.jpg","mountains","X",22,"no",0.999878,1,0.473570585250854,"j",0,4,3.5
"784",79,16,186,-271.270432768909,1.86,"mountains8.jpg","mountains","X",22,"no",0.999878,1,0.473570585250854,"j",0,4,3.5
"785",79,16,187,-271.225147890431,1.87,"mountains8.jpg","mountains","X",22,"no",0.999878,1,0.473570585250854,"j",0,4,3.5
"786",79,16,188,-271.182019434737,1.88,"mountains8.jpg","mountains","X",22,"no",0.999878,1,0.473570585250854,"j",0,4,3.5
"787",79,16,189,-271.141047401828,1.89,"mountains8.jpg","mountains","X",22,"no",0.999878,1,0.473570585250854,"j",0,4,3.5
"788",79,16,190,-271.097918946135,1.9,"mountains8.jpg","mountains","X",22,"no",0.999878,1,0.473570585250854,"j",0,4,3.5
"789",79,16,191,-271.054790490441,1.91,"mountains8.jpg","mountains","X",22,"no",0.999878,1,0.473570585250854,"j",0,4,3.5
"790",79,16,192,-271.011662034747,1.92,"mountains8.jpg","mountains","X",22,"no",0.999878,1,0.473570585250854,"j",0,4,3.5
"791",79,16,193,-270.968533579053,1.93,"mountains8.jpg","mountains","X",22,"no",0.999878,1,0.473570585250854,"j",0,4,3.5
"792",79,16,194,-270.92540512336,1.94,"mountains8.jpg","mountains","X",22,"no",0.999878,1,0.473570585250854,"j",0,4,3.5
"793",79,16,195,-270.882276667666,1.95,"mountains8.jpg","mountains","X",22,"no",0.999878,1,0.473570585250854,"j",0,4,3.5
"794",79,16,196,-270.839148211972,1.96,"mountains8.jpg","mountains","X",22,"no",0.999878,1,0.473570585250854,"j",0,4,3.5
"795",79,16,197,-270.796019756278,1.97,"mountains8.jpg","mountains","X",22,"no",0.999878,1,0.473570585250854,"j",0,4,3.5
"796",79,16,198,-270.752891300585,1.98,"mountains8.jpg","mountains","X",22,"no",0.999878,1,0.473570585250854,"j",0,4,3.5
"797",79,16,199,-270.709762844891,1.99,"mountains8.jpg","mountains","X",22,"no",0.999878,1,0.473570585250854,"j",0,4,3.5
"798",79,16,200,-270.664477966413,2,"mountains8.jpg","mountains","X",22,"no",0.999878,1,0.473570585250854,"j",0,4,3.5
"799",79,16,201,-270.621349510719,2.01,"mountains8.jpg","mountains","X",22,"no",0.999878,1,0.473570585250854,"j",0,4,3.5
"800",79,16,202,-270.578221055025,2.02,"mountains8.jpg","mountains","X",22,"no",0.999878,1,0.473570585250854,"j",0,4,3.5
"801",79,16,203,-270.535092599331,2.03,"mountains8.jpg","mountains","X",22,"no",0.999878,1,0.473570585250854,"j",0,4,3.5
"802",79,16,204,-270.491964143638,2.04,"mountains8.jpg","mountains","X",22,"no",0.999878,1,0.473570585250854,"j",0,4,3.5
"803",79,16,205,-270.448835687944,2.05,"mountains8.jpg","mountains","X",22,"no",0.999878,1,0.473570585250854,"j",0,4,3.5
"804",79,16,206,-270.40570723225,2.06,"mountains8.jpg","mountains","X",22,"no",0.999878,1,0.473570585250854,"j",0,4,3.5
"805",79,16,207,-270.362578776557,2.07,"mountains8.jpg","mountains","X",22,"no",0.999878,1,0.473570585250854,"j",0,4,3.5
"806",79,16,208,-270.319450320863,2.08,"mountains8.jpg","mountains","X",22,"no",0.999878,1,0.473570585250854,"j",0,4,3.5
"807",79,16,209,-270.276321865169,2.09,"mountains8.jpg","mountains","X",22,"no",0.999878,1,0.473570585250854,"j",0,4,3.5
"808",79,16,210,-270.233193409475,2.1,"mountains8.jpg","mountains","X",22,"no",0.999878,1,0.473570585250854,"j",0,4,3.5
"809",79,16,211,-270.190064953782,2.11,"mountains8.jpg","mountains","X",22,"no",0.999878,1,0.473570585250854,"j",0,4,3.5
"810",79,16,212,-270.146936498088,2.12,"mountains8.jpg","mountains","X",22,"no",0.999878,1,0.473570585250854,"j",0,4,3.5
"811",79,16,213,-270.103808042394,2.13,"mountains8.jpg","mountains","X",22,"no",0.999878,1,0.473570585250854,"j",0,4,3.5
"812",79,16,214,-270.062836009485,2.14,"mountains8.jpg","mountains","X",22,"no",0.999878,1,0.473570585250854,"j",0,4,3.5
"813",79,16,215,-270.019707553791,2.15,"mountains8.jpg","mountains","X",22,"no",0.999878,1,0.473570585250854,"j",0,4,3.5
"814",79,16,216,-269.976579098098,2.16,"mountains8.jpg","mountains","X",22,"no",0.999878,1,0.473570585250854,"j",0,4,3.5
"815",79,16,217,-269.933450642404,2.17,"mountains8.jpg","mountains","X",22,"no",0.999878,1,0.473570585250854,"j",0,4,3.5
"816",79,16,218,-269.89032218671,2.18,"mountains8.jpg","mountains","X",22,"no",0.999878,1,0.473570585250854,"j",0,4,3.5
"817",79,16,219,-269.847193731016,2.19,"mountains8.jpg","mountains","X",22,"no",0.999878,1,0.473570585250854,"j",0,4,3.5
"818",79,16,220,-269.804065275323,2.2,"mountains8.jpg","mountains","X",22,"no",0.999878,1,0.473570585250854,"j",0,4,3.5
"819",79,16,221,-269.760936819629,2.21,"mountains8.jpg","mountains","X",22,"no",0.999878,1,0.473570585250854,"j",0,4,3.5
"820",79,16,222,-269.717808363935,2.22,"mountains8.jpg","mountains","X",22,"no",0.999878,1,0.473570585250854,"j",0,4,3.5
"821",79,16,223,-269.674679908242,2.23,"mountains8.jpg","mountains","X",22,"no",0.999878,1,0.473570585250854,"j",0,4,3.5
"822",79,16,224,-269.631551452548,2.24,"mountains8.jpg","mountains","X",22,"no",0.999878,1,0.473570585250854,"j",0,4,3.5
"823",79,16,225,-269.586266574069,2.25,"mountains8.jpg","mountains","X",22,"no",0.999878,1,0.473570585250854,"j",0,4,3.5
"824",79,16,226,-269.543138118376,2.26,"mountains8.jpg","mountains","X",22,"no",0.999878,1,0.473570585250854,"j",0,4,3.5
"825",79,16,227,-269.500009662682,2.27,"mountains8.jpg","mountains","X",22,"no",0.999878,1,0.473570585250854,"j",0,4,3.5
"826",79,16,228,-269.456881206988,2.28,"mountains8.jpg","mountains","X",22,"no",0.999878,1,0.473570585250854,"j",0,4,3.5
"827",79,16,229,-269.413752751295,2.29,"mountains8.jpg","mountains","X",22,"no",0.999878,1,0.473570585250854,"j",0,4,3.5
"828",79,16,230,-269.370624295601,2.3,"mountains8.jpg","mountains","X",22,"no",0.999878,1,0.473570585250854,"j",0,4,3.5
"829",79,16,231,-269.327495839907,2.31,"mountains8.jpg","mountains","X",22,"no",0.999878,1,0.473570585250854,"j",0,4,3.5
"830",79,16,232,-269.284367384213,2.32,"mountains8.jpg","mountains","X",22,"no",0.999878,1,0.473570585250854,"j",0,4,3.5
"831",79,16,233,-269.24123892852,2.33,"mountains8.jpg","mountains","X",22,"no",0.999878,1,0.473570585250854,"j",0,4,3.5
"832",79,16,234,-269.198110472826,2.34,"mountains8.jpg","mountains","X",22,"no",0.999878,1,0.473570585250854,"j",0,4,3.5
"833",79,16,235,-269.154982017132,2.35,"mountains8.jpg","mountains","X",22,"no",0.999878,1,0.473570585250854,"j",0,4,3.5
"834",79,16,236,-269.111853561438,2.36,"mountains8.jpg","mountains","X",22,"no",0.999878,1,0.473570585250854,"j",0,4,3.5
"835",79,16,237,-269.068725105745,2.37,"mountains8.jpg","mountains","X",22,"no",0.999878,1,0.473570585250854,"j",0,4,3.5
"836",79,16,238,-269.025596650051,2.38,"mountains8.jpg","mountains","X",22,"no",0.999878,1,0.473570585250854,"j",0,4,3.5
"837",79,16,239,-268.984624617142,2.39,"mountains8.jpg","mountains","X",22,"no",0.999878,1,0.473570585250854,"j",0,4,3.5
"838",79,16,240,-268.941496161448,2.4,"mountains8.jpg","mountains","X",22,"no",0.999878,1,0.473570585250854,"j",0,4,3.5
"839",79,16,241,-268.898367705755,2.41,"mountains8.jpg","mountains","X",22,"no",0.999878,1,0.473570585250854,"j",0,4,3.5
"840",79,16,242,-268.855239250061,2.42,"mountains8.jpg","mountains","X",22,"no",0.999878,1,0.473570585250854,"j",0,4,3.5
"841",79,16,243,-268.812110794367,2.43,"mountains8.jpg","mountains","X",22,"no",0.999878,1,0.473570585250854,"j",0,4,3.5
"842",79,16,244,-268.768982338673,2.44,"mountains8.jpg","mountains","X",22,"no",0.999878,1,0.473570585250854,"j",0,4,3.5
"843",79,16,245,-268.72585388298,2.45,"mountains8.jpg","mountains","X",22,"no",0.999878,1,0.473570585250854,"j",0,4,3.5
"844",79,16,246,-268.682725427286,2.46,"mountains8.jpg","mountains","X",22,"no",0.999878,1,0.473570585250854,"j",0,4,3.5
"845",79,16,247,-268.639596971592,2.47,"mountains8.jpg","mountains","X",22,"no",0.999878,1,0.473570585250854,"j",0,4,3.5
"846",79,16,248,-268.596468515898,2.48,"mountains8.jpg","mountains","X",22,"no",0.999878,1,0.473570585250854,"j",0,4,3.5
"847",79,16,249,-268.553340060205,2.49,"mountains8.jpg","mountains","X",22,"no",0.999878,1,0.473570585250854,"j",0,4,3.5
"848",79,16,250,-268.508055181726,2.5,"mountains8.jpg","mountains","X",22,"no",0.999878,1,0.473570585250854,"j",0,4,3.5
"849",79,16,251,-268.464926726033,2.51,"mountains8.jpg","mountains","X",22,"no",0.999878,1,0.473570585250854,"j",0,4,3.5
"850",79,16,252,-268.421798270339,2.52,"mountains8.jpg","mountains","X",22,"no",0.999878,1,0.473570585250854,"j",0,4,3.5
"851",79,16,253,-268.378669814645,2.53,"mountains8.jpg","mountains","X",22,"no",0.999878,1,0.473570585250854,"j",0,4,3.5
"852",79,16,254,-268.335541358951,2.54,"mountains8.jpg","mountains","X",22,"no",0.999878,1,0.473570585250854,"j",0,4,3.5
"853",79,16,255,-268.292412903258,2.55,"mountains8.jpg","mountains","X",22,"no",0.999878,1,0.473570585250854,"j",0,4,3.5
"854",79,16,256,-268.251440870349,2.56,"mountains8.jpg","mountains","X",22,"no",0.999878,1,0.473570585250854,"j",0,4,3.5
"855",79,16,257,-268.208312414655,2.57,"mountains8.jpg","mountains","X",22,"no",0.999878,1,0.473570585250854,"j",0,4,3.5
"856",79,16,258,-268.165183958961,2.58,"mountains8.jpg","mountains","X",22,"no",0.999878,1,0.473570585250854,"j",0,4,3.5
"857",79,16,259,-268.122055503267,2.59,"mountains8.jpg","mountains","X",22,"no",0.999878,1,0.473570585250854,"j",0,4,3.5
"858",79,16,260,-268.078927047574,2.6,"mountains8.jpg","mountains","X",22,"no",0.999878,1,0.473570585250854,"j",0,4,3.5
"859",79,16,261,-268.03579859188,2.61,"mountains8.jpg","mountains","X",22,"no",0.999878,1,0.473570585250854,"j",0,4,3.5
"860",79,16,262,-267.992670136186,2.62,"mountains8.jpg","mountains","X",22,"no",0.999878,1,0.473570585250854,"j",0,4,3.5
"861",79,16,263,-267.949541680493,2.63,"mountains8.jpg","mountains","X",22,"no",0.999878,1,0.473570585250854,"j",0,4,3.5
"862",79,16,264,-267.906413224799,2.64,"mountains8.jpg","mountains","X",22,"no",0.999878,1,0.473570585250854,"j",0,4,3.5
"863",79,16,265,-267.863284769105,2.65,"mountains8.jpg","mountains","X",22,"no",0.999878,1,0.473570585250854,"j",0,4,3.5
"864",79,16,266,-267.820156313411,2.66,"mountains8.jpg","mountains","X",22,"no",0.999878,1,0.473570585250854,"j",0,4,3.5
"865",79,16,267,-267.777027857718,2.67,"mountains8.jpg","mountains","X",22,"no",0.999878,1,0.473570585250854,"j",0,4,3.5
"866",79,16,268,-267.733899402024,2.68,"mountains8.jpg","mountains","X",22,"no",0.999878,1,0.473570585250854,"j",0,4,3.5
"867",79,16,269,-267.69077094633,2.69,"mountains8.jpg","mountains","X",22,"no",0.999878,1,0.473570585250854,"j",0,4,3.5
"868",79,16,270,-267.647642490636,2.7,"mountains8.jpg","mountains","X",22,"no",0.999878,1,0.473570585250854,"j",0,4,3.5
"869",79,16,271,-267.604514034943,2.71,"mountains8.jpg","mountains","X",22,"no",0.999878,1,0.473570585250854,"j",0,4,3.5
"870",79,16,272,-267.561385579249,2.72,"mountains8.jpg","mountains","X",22,"no",0.999878,1,0.473570585250854,"j",0,4,3.5
"871",79,16,273,-267.518257123555,2.73,"mountains8.jpg","mountains","X",22,"no",0.999878,1,0.473570585250854,"j",0,4,3.5
