subid	trial	img	categ	cond	rep	answer	trialdur	acc	rt	resp	group	block	ITI
1	0	lighthouses38.jpg	lighthouses	B	0	yes	1.000089	0	NaN	n	0	1	3.5
1	1	lakes45.jpg	lakes	X	0	yes	0.999924	1	0.949259519577026	k	0	1	2
1	2	parks31.jpg	parks	B	0	yes	0.999861	1	0.721395015716553	k	0	1	2
1	3	forests35.jpg	forests	X	0	no	0.999972	1	0.651114940643311	j	0	1	5
1	4	waterfalls25.jpg	waterfalls	A	0	no	0.999948	1	0.723209619522095	j	0	1	3.5
1	5	forests23.jpg	forests	X	1	no	0.999923	1	0.685299634933472	j	0	1	3.5
1	6	parks17.jpg	parks	B	1	yes	0.999843	1	0.610335826873779	k	0	1	3.5
1	7	waterfalls49.jpg	waterfalls	A	1	no	0.999994	1	0.567430734634399	j	0	1	2
1	8	deserts9.jpg	deserts	X	0	no	0.999886	1	0.606489896774292	j	0	1	3.5
1	9	waterfalls5.jpg	waterfalls	A	2	no	0.999983	1	0.591516733169556	j	0	1	2
1	10	marshes51.jpg	marshes	X	0	no	0.999931	1	0.559613704681397	j	0	1	5
1	11	deserts8.jpg	deserts	X	1	no	0.99993	1	0.575727462768555	j	0	1	3.5
1	12	fields39.jpg	fields	A	0	yes	0.999932	1	0.592823505401611	k	0	1	3.5
1	13	lighthouses12.jpg	lighthouses	B	1	yes	0.999865	1	0.685857534408569	k	0	1	3.5
1	14	canyons36.jpg	canyons	X	0	no	0.999997	1	0.509930610656738	j	0	1	3.5
1	15	mountains6.jpg	mountains	B	0	no	0.999941	1	0.759986877441406	j	0	1	3.5
1	16	parks34.jpg	parks	B	2	yes	1.000024	1	0.530081987380981	k	0	1	3.5
1	17	mountains22.jpg	mountains	B	1	no	0.999976	1	0.786167621612549	j	0	1	2
1	18	bridges48.jpg	bridges	A	0	yes	0.99994	1	0.830205917358398	k	0	1	2
1	19	fields43.jpg	fields	A	1	yes	0.999852	1	0.694228887557983	k	0	1	2
1	20	deserts20.jpg	deserts	X	2	no	0.999876	1	0.688278675079346	j	0	1	2
1	21	bridges3.jpg	bridges	A	1	yes	0.999864	1	0.45636248588562	k	0	1	3.5
1	22	beaches31.jpg	beaches	X	0	yes	1.000015	1	0.619422912597656	k	0	1	3.5
1	23	bridges43.jpg	bridges	A	2	yes	0.999986	1	0.543520927429199	k	0	1	5
1	24	fields4.jpg	fields	A	2	yes	0.999933	1	0.619620323181152	k	0	1	2
1	25	lakes15.jpg	lakes	X	1	yes	0.999999	1	0.588719606399536	k	0	1	3.5
1	26	marshes34.jpg	marshes	X	1	no	0.999924	1	0.518743991851807	j	0	1	2
1	27	mountains7.jpg	mountains	B	2	no	0.999918	1	0.597801923751831	j	0	1	3.5
1	28	parks47.jpg	parks	B	3	yes	0.999986	1	0.736960649490356	k	0	1	5
1	29	canyons43.jpg	canyons	X	1	no	0.999923	1	0.594980716705322	j	0	1	3.5
1	30	lighthouses51.jpg	lighthouses	B	2	yes	0.99993	1	0.617086887359619	k	0	1	3.5
1	31	lakes54.jpg	lakes	X	2	yes	1.000201	0	1.21408748626709	j	0	1	2
1	32	beaches37.jpg	beaches	X	1	yes	0.999916	1	0.710184574127197	k	0	1	2
1	33	lighthouses13.jpg	lighthouses	B	3	yes	0.999935	1	0.700269937515259	k	0	1	5
1	34	canyons6.jpg	canyons	X	2	no	0.999935	1	0.571355104446411	j	0	1	5
1	35	lighthouses5.jpg	lighthouses	B	4	yes	0.999934	1	0.510335683822632	k	0	1	2
1	36	deserts10.jpg	deserts	X	3	no	0.999998	1	0.495480537414551	j	0	1	5
1	37	fields8.jpg	fields	A	3	yes	0.999996	1	0.462571620941162	k	0	1	3.5
1	38	beaches35.jpg	beaches	X	2	yes	0.999996	1	0.507694721221924	k	0	1	2
1	39	parks25.jpg	parks	B	4	yes	0.999965	1	0.713667869567871	k	0	1	3.5
1	40	waterfalls8.jpg	waterfalls	A	3	no	0.999965	1	0.571732997894287	j	0	1	3.5
1	41	lakes46.jpg	lakes	X	3	yes	0.999921	1	0.788815259933472	k	0	1	2
1	42	marshes32.jpg	marshes	X	2	no	0.999947	1	0.62887454032898	j	0	1	3.5
1	43	mountains43.jpg	mountains	B	3	no	0.999917	1	0.677973747253418	j	0	1	2
1	44	marshes31.jpg	marshes	X	3	no	0.999919	1	0.686002969741821	j	0	1	5
1	45	forests30.jpg	forests	X	2	no	0.999996	1	0.531129598617554	j	0	1	2
1	46	fields35.jpg	fields	A	4	yes	0.999867	1	0.658477783203125	k	0	1	2
1	47	mountains47.jpg	mountains	B	4	no	0.999885	1	0.535218954086304	j	0	1	5
1	48	beaches10.jpg	beaches	X	3	yes	1.000114	1	0.748286485671997	k	0	1	2
1	49	mountains26.jpg	mountains	B	5	no	0.99997	1	0.595340967178345	j	0	1	2
1	50	waterfalls47.jpg	waterfalls	A	4	no	1.000005	1	0.675383567810059	j	0	1	5
1	51	canyons20.jpg	canyons	X	3	no	0.99995	1	0.526533603668213	j	0	1	2
1	52	forests24.jpg	forests	X	3	no	0.99993	1	0.450518846511841	j	0	1	2
1	53	beaches28.jpg	beaches	X	4	yes	0.999848	1	0.543593645095825	k	0	1	5
1	54	lakes7.jpg	lakes	X	4	yes	0.999909	1	0.688673973083496	k	0	1	2
1	55	beaches6.jpg	beaches	X	5	yes	0.999917	1	0.558739900588989	k	0	1	5
1	56	forests11.jpg	forests	X	4	no	0.999882	1	0.474164009094238	j	0	1	2
1	57	fields19.jpg	fields	A	5	yes	0.999911	1	0.768888711929321	k	0	1	5
1	58	bridges23.jpg	bridges	A	3	yes	0.999999	1	0.515984535217285	k	0	1	3.5
1	59	deserts23.jpg	deserts	X	4	no	0.99992	1	0.479091882705689	j	0	1	5
1	60	canyons26.jpg	canyons	X	4	no	0.999904	1	0.752180576324463	j	0	1	2
1	61	lighthouses50.jpg	lighthouses	B	5	yes	0.999998	1	0.588221549987793	k	0	1	2
1	62	waterfalls53.jpg	waterfalls	A	5	no	0.999971	1	0.530304431915283	j	0	1	3.5
1	63	lakes53.jpg	lakes	X	5	yes	0.999992	1	0.507354736328125	k	0	1	5
1	64	canyons51.jpg	canyons	X	5	no	0.999965	1	0.498429536819458	j	0	1	5
1	65	deserts49.jpg	deserts	X	5	no	0.999868	1	0.516861915588379	j	0	1	3.5
1	66	bridges34.jpg	bridges	A	4	yes	0.999904	1	0.48356556892395	k	0	1	2
1	67	beaches22.jpg	beaches	X	6	yes	0.999993	1	0.705654621124268	k	0	1	3.5
1	68	marshes49.jpg	marshes	X	4	no	0.999985	1	0.725735664367676	j	0	1	2
1	69	deserts52.jpg	deserts	X	6	no	0.999893	1	0.541116714477539	j	0	1	2
1	70	marshes35.jpg	marshes	X	5	no	1.00001	1	0.591833591461182	j	0	1	2
1	71	mountains1.jpg	mountains	B	6	no	0.999998	1	0.518873929977417	j	0	1	2
1	72	parks2.jpg	parks	B	5	yes	0.999989	1	0.621919870376587	k	0	1	3.5
1	73	waterfalls20.jpg	waterfalls	A	6	no	0.999967	1	0.665001630783081	j	0	1	3.5
1	74	forests44.jpg	forests	X	5	no	0.999844	1	0.632116794586182	j	0	1	5
1	75	lakes44.jpg	lakes	X	6	yes	0.999902	1	0.53651762008667	k	0	1	3.5
1	76	bridges2.jpg	bridges	A	5	yes	0.999936	1	0.552259922027588	k	0	1	3.5
1	77	marshes28.jpg	marshes	X	6	no	0.999827	1	0.578665733337402	j	0	1	2
1	78	forests4.jpg	forests	X	6	no	0.999799	1	0.728378534317017	j	0	1	2
1	79	fields53.jpg	fields	A	6	yes	1	1	0.715423583984375	k	0	1	3.5
1	80	bridges45.jpg	bridges	A	6	yes	0.999983	1	0.466548442840576	k	0	1	5
1	81	canyons55.jpg	canyons	X	6	no	0.999947	1	0.595615386962891	j	0	1	3.5
1	82	parks3.jpg	parks	B	6	yes	1.000035	1	0.66267466545105	k	0	1	3.5
1	83	lighthouses15.jpg	lighthouses	B	6	yes	0.999891	1	0.47908091545105	k	0	1	3.5
1	0	fields47.jpg	fields	A	7	yes	0.999988	1	1.21298265457153	k	0	2	3.5
1	1	parks32.jpg	parks	B	7	yes	0.999928	1	0.689953565597534	k	0	2	3.5
1	2	beaches24.jpg	beaches	X	7	yes	0.999917	1	0.446096658706665	k	0	2	2
1	3	deserts35.jpg	deserts	X	7	no	1.00006	1	0.48811149597168	j	0	2	5
1	4	beaches20.jpg	beaches	X	8	yes	1	1	0.63956356048584	k	0	2	2
1	5	waterfalls11.jpg	waterfalls	A	7	no	0.999937	1	0.566286563873291	j	0	2	5
1	6	mountains24.jpg	mountains	B	7	no	0.999927	1	0.507428646087647	j	0	2	2
1	7	lakes47.jpg	lakes	X	7	yes	0.999968	1	0.52942681312561	k	0	2	5
1	8	canyons25.jpg	canyons	X	7	no	0.999939	1	0.480530977249146	j	0	2	5
1	9	lakes21.jpg	lakes	X	8	yes	0.999906	1	0.675648212432861	k	0	2	3.5
1	10	forests38.jpg	forests	X	7	no	0.999981	1	0.471725463867188	j	0	2	2
1	11	bridges36.jpg	bridges	A	7	yes	0.999841	1	0.561815738677979	k	0	2	2
1	12	lighthouses48.jpg	lighthouses	B	7	yes	0.999915	1	0.493823766708374	k	0	2	5
1	13	canyons56.jpg	canyons	X	8	no	1.000005	1	0.499911785125732	j	0	2	5
1	14	forests56.jpg	forests	X	8	no	0.999915	1	0.519039154052734	j	0	2	5
1	15	beaches30.jpg	beaches	X	9	yes	0.999994	1	0.470200538635254	k	0	2	5
1	16	lakes51.jpg	lakes	X	9	yes	0.999815	1	0.621274709701538	k	0	2	2
1	17	marshes24.jpg	marshes	X	7	no	0.999968	1	0.771247148513794	j	0	2	3.5
1	18	fields51.jpg	fields	A	8	yes	0.999998	1	0.6123366355896	k	0	2	2
1	19	parks49.jpg	parks	B	8	yes	0.999997	1	0.665449619293213	k	0	2	2
1	20	canyons9.jpg	canyons	X	9	no	0.999952	1	0.504403829574585	j	0	2	5
1	21	marshes40.jpg	marshes	X	8	no	0.999963	1	0.720515727996826	j	0	2	3.5
1	22	beaches42.jpg	beaches	X	10	yes	0.999891	1	0.65360951423645	k	0	2	3.5
1	23	canyons54.jpg	canyons	X	10	no	0.999931	1	0.498692750930786	j	0	2	3.5
1	24	bridges52.jpg	bridges	A	8	yes	0.999905	1	0.564795017242432	k	0	2	2
1	25	lighthouses54.jpg	lighthouses	B	8	yes	0.999996	1	0.546890735626221	k	0	2	3.5
1	26	forests47.jpg	forests	X	9	no	1.000002	1	0.555892467498779	j	0	2	3.5
1	27	deserts34.jpg	deserts	X	8	no	0.999913	1	0.572035789489746	j	0	2	5
1	28	bridges19.jpg	bridges	A	9	yes	1.000069	1	0.465032815933228	k	0	2	3.5
1	29	lighthouses17.jpg	lighthouses	B	9	yes	0.999979	1	0.622178554534912	k	0	2	5
1	30	canyons4.jpg	canyons	X	11	no	0.999939	1	0.539268016815186	j	0	2	2
1	31	deserts42.jpg	deserts	X	9	no	0.999989	1	0.617261648178101	j	0	2	5
1	32	bridges40.jpg	bridges	A	10	yes	0.999995	1	0.406357288360596	k	0	2	3.5
1	33	lighthouses29.jpg	lighthouses	B	10	yes	0.999977	1	0.508485794067383	k	0	2	3.5
1	34	waterfalls48.jpg	waterfalls	A	8	no	1.000002	1	0.589572429656982	j	0	2	3.5
1	35	mountains5.jpg	mountains	B	8	no	0.999991	1	0.54657769203186	j	0	2	3.5
1	36	fields33.jpg	fields	A	9	yes	1.000113	1	0.426702737808228	k	0	2	2
1	37	parks30.jpg	parks	B	9	yes	1.000021	1	0.579733848571777	k	0	2	2
1	38	lakes39.jpg	lakes	X	10	yes	0.999995	1	0.595723867416382	k	0	2	2
1	39	waterfalls6.jpg	waterfalls	A	9	no	1.000033	1	0.653817892074585	j	0	2	3.5
1	40	mountains52.jpg	mountains	B	9	no	1.000323	1	0.496948957443237	j	0	2	2
1	41	marshes5.jpg	marshes	X	9	no	0.99998	1	0.651153087615967	j	0	2	3.5
1	42	fields52.jpg	fields	A	10	yes	0.999795	1	0.439372301101685	k	0	2	2
1	43	parks39.jpg	parks	B	10	yes	0.999965	1	0.808069705963135	k	0	2	2
1	44	deserts22.jpg	deserts	X	10	no	0.999902	1	0.54311466217041	j	0	2	3.5
1	45	beaches49.jpg	beaches	X	11	yes	0.999989	1	0.58818244934082	k	0	2	2
1	46	waterfalls46.jpg	waterfalls	A	10	no	1.000008	1	0.651256799697876	j	0	2	3.5
1	47	mountains15.jpg	mountains	B	10	no	1.000069	1	0.576319217681885	j	0	2	2
1	48	deserts50.jpg	deserts	X	11	no	0.999919	1	0.821385860443115	j	0	2	5
1	49	marshes4.jpg	marshes	X	10	no	0.999996	1	0.527487754821777	j	0	2	5
1	50	bridges14.jpg	bridges	A	11	yes	0.999867	1	0.540606260299683	k	0	2	3.5
1	51	lighthouses27.jpg	lighthouses	B	11	yes	0.999928	1	0.558649778366089	k	0	2	3.5
1	52	marshes37.jpg	marshes	X	11	no	1.000038	1	0.4576735496521	j	0	2	5
1	53	fields38.jpg	fields	A	11	yes	0.999916	1	0.481817960739136	k	0	2	2
1	54	parks51.jpg	parks	B	11	yes	0.999987	1	0.589838027954102	k	0	2	2
1	55	marshes41.jpg	marshes	X	12	no	0.999997	1	0.636912822723389	j	0	2	5
1	56	bridges30.jpg	bridges	A	12	yes	0.999932	1	0.649022102355957	k	0	2	5
1	57	lighthouses9.jpg	lighthouses	B	12	yes	0.999971	1	0.535105705261231	k	0	2	2
1	58	forests32.jpg	forests	X	10	no	1.00001	0	0.684200763702393	k	0	2	2
1	59	waterfalls55.jpg	waterfalls	A	11	no	0.999997	1	0.710270643234253	j	0	2	3.5
1	60	mountains50.jpg	mountains	B	11	no	0.999926	1	0.637228012084961	j	0	2	3.5
1	61	fields2.jpg	fields	A	12	yes	0.99998	1	0.666377544403076	k	0	2	2
1	62	parks41.jpg	parks	B	12	yes	0.999989	1	0.697422742843628	k	0	2	3.5
1	63	beaches34.jpg	beaches	X	12	yes	0.999885	1	0.488837718963623	k	0	2	2
1	64	deserts19.jpg	deserts	X	12	no	0.999925	1	0.631608009338379	j	0	2	2
1	65	canyons19.jpg	canyons	X	12	no	0.999979	1	0.776627779006958	j	0	2	3.5
1	66	marshes23.jpg	marshes	X	13	no	0.999919	1	0.506966829299927	j	0	2	3.5
1	67	lakes11.jpg	lakes	X	11	yes	0.999977	1	0.512752532958984	k	0	2	2
1	68	deserts21.jpg	deserts	X	13	no	0.999641	1	0.580092668533325	j	0	2	5
1	69	bridges27.jpg	bridges	A	13	yes	0.99988	1	0.498255252838135	k	0	2	2
1	70	lighthouses46.jpg	lighthouses	B	13	yes	1.000069	1	0.502898693084717	k	0	2	3.5
1	71	waterfalls42.jpg	waterfalls	A	12	no	0.99995	1	0.57102108001709	j	0	2	2
1	72	mountains55.jpg	mountains	B	12	no	0.999852	1	0.67307448387146	j	0	2	3.5
1	73	forests52.jpg	forests	X	11	no	0.999869	1	0.755144834518433	j	0	2	3.5
1	74	fields32.jpg	fields	A	13	yes	0.999941	1	0.590592622756958	k	0	2	3.5
1	75	parks36.jpg	parks	B	13	yes	0.999987	1	0.488288402557373	k	0	2	2
1	76	waterfalls18.jpg	waterfalls	A	13	no	1.000041	1	0.602362632751465	j	0	2	2
1	77	mountains35.jpg	mountains	B	13	no	0.999988	1	0.599395751953125	j	0	2	2
1	78	canyons7.jpg	canyons	X	13	no	1.000158	1	0.674761772155762	j	0	2	2
1	79	lakes33.jpg	lakes	X	12	yes	1.000011	1	0.580469608306885	k	0	2	2
1	80	beaches13.jpg	beaches	X	13	yes	0.999918	1	0.603874683380127	k	0	2	3.5
1	81	forests7.jpg	forests	X	12	no	0.999889	1	0.543632507324219	j	0	2	3.5
1	82	lakes32.jpg	lakes	X	13	yes	0.999939	1	0.622035980224609	k	0	2	3.5
1	83	forests6.jpg	forests	X	13	no	1.000011	1	0.491806507110596	j	0	2	3.5
1	0	fields48.jpg	fields	A	14	yes	0.999808	1	0.690352439880371	k	0	3	3.5
1	1	parks40.jpg	parks	B	14	yes	0.999827	1	0.479369878768921	k	0	3	2
1	2	deserts51.jpg	deserts	X	14	no	0.999899	1	0.518455982208252	j	0	3	3.5
1	3	canyons17.jpg	canyons	X	14	no	0.999926	1	0.501559972763062	j	0	3	5
1	4	beaches29.jpg	beaches	X	14	yes	0.999936	1	0.519302606582642	k	0	3	3.5
1	5	canyons39.jpg	canyons	X	15	no	0.999907	1	0.435709714889526	j	0	3	3.5
1	6	waterfalls24.jpg	waterfalls	A	14	no	0.999872	1	0.535788774490356	j	0	3	5
1	7	mountains28.jpg	mountains	B	14	no	0.999876	1	0.472853899002075	j	0	3	2
1	8	deserts3.jpg	deserts	X	15	no	0.999895	1	0.432974100112915	j	0	3	2
1	9	bridges39.jpg	bridges	A	14	yes	0.999871	1	0.562933683395386	k	0	3	5
1	10	lighthouses21.jpg	lighthouses	B	14	yes	0.99989	1	0.590077877044678	k	0	3	2
1	11	deserts11.jpg	deserts	X	16	no	0.999894	1	0.483119964599609	j	0	3	2
1	12	fields23.jpg	fields	A	15	yes	0.999902	1	0.508267879486084	k	0	3	5
1	13	parks53.jpg	parks	B	15	yes	0.999893	1	0.445375442504883	k	0	3	5
1	14	lakes19.jpg	lakes	X	14	yes	0.999814	1	0.687451839447022	k	0	3	3.5
1	15	waterfalls23.jpg	waterfalls	A	15	no	0.999865	1	0.466442108154297	j	0	3	3.5
1	16	mountains37.jpg	mountains	B	15	no	0.999891	1	0.475617647171021	j	0	3	5
1	17	beaches11.jpg	beaches	X	15	yes	0.999895	1	0.438666820526123	k	0	3	3.5
1	18	waterfalls45.jpg	waterfalls	A	16	no	0.999896	1	0.494728803634644	j	0	3	2
1	19	mountains16.jpg	mountains	B	16	no	0.999893	1	0.552742958068848	j	0	3	3.5
1	20	forests8.jpg	forests	X	14	no	0.999965	1	0.584795951843262	j	0	3	3.5
1	21	bridges9.jpg	bridges	A	15	yes	0.99992	1	0.558889150619507	k	0	3	5
1	22	lighthouses33.jpg	lighthouses	B	15	yes	0.999878	1	0.497982025146484	k	0	3	2
1	23	waterfalls51.jpg	waterfalls	A	17	no	0.999883	1	0.55907678604126	j	0	3	2
1	24	mountains34.jpg	mountains	B	17	no	0.999878	1	0.541115760803223	j	0	3	2
1	25	forests3.jpg	forests	X	15	no	0.999925	1	0.591184139251709	j	0	3	2
1	26	lakes9.jpg	lakes	X	15	yes	0.999987	1	0.494144916534424	k	0	3	2
1	27	bridges26.jpg	bridges	A	16	yes	0.999902	1	0.862290859222412	k	0	3	3.5
1	28	lighthouses47.jpg	lighthouses	B	16	yes	0.99991	1	0.435421943664551	k	0	3	5
1	29	beaches7.jpg	beaches	X	16	yes	0.999883	1	0.557482957839966	k	0	3	2
1	30	canyons52.jpg	canyons	X	16	no	0.999858	1	0.662474632263184	j	0	3	2
1	31	bridges33.jpg	bridges	A	17	yes	0.999838	0	0.513617753982544	j	0	3	2
1	32	lighthouses1.jpg	lighthouses	B	17	yes	0.999882	1	0.531627893447876	k	0	3	3.5
1	33	fields27.jpg	fields	A	16	yes	0.999874	1	0.589693784713745	k	0	3	2
1	34	parks54.jpg	parks	B	16	yes	0.999892	1	0.576716661453247	k	0	3	2
1	35	deserts45.jpg	deserts	X	17	no	0.999883	1	0.586734771728516	j	0	3	3.5
1	36	waterfalls14.jpg	waterfalls	A	18	no	0.999912	1	0.686815977096558	j	0	3	2
1	37	mountains32.jpg	mountains	B	18	no	0.999896	1	0.64687991142273	j	0	3	3.5
1	38	marshes30.jpg	marshes	X	14	no	0.99991	1	0.532931804656982	j	0	3	5
1	39	forests53.jpg	forests	X	16	no	0.999903	1	0.601033926010132	j	0	3	2
1	40	lakes29.jpg	lakes	X	16	yes	0.999915	1	0.535078287124634	k	0	3	3.5
1	41	bridges47.jpg	bridges	A	18	yes	0.999855	1	0.513180494308472	k	0	3	5
1	42	lighthouses8.jpg	lighthouses	B	18	yes	0.999937	1	0.598235607147217	k	0	3	3.5
1	43	lakes40.jpg	lakes	X	17	yes	0.999857	1	0.529364824295044	k	0	3	3.5
1	44	fields25.jpg	fields	A	17	yes	0.999596	1	0.483430147171021	k	0	3	5
1	45	parks55.jpg	parks	B	17	yes	0.999861	1	0.513545751571655	k	0	3	2
1	46	canyons37.jpg	canyons	X	17	no	0.999797	1	0.507571697235107	j	0	3	3.5
1	47	marshes43.jpg	marshes	X	15	no	0.999854	1	0.514631748199463	j	0	3	5
1	48	forests48.jpg	forests	X	17	no	0.999877	1	0.542749643325806	j	0	3	5
1	49	beaches23.jpg	beaches	X	17	yes	0.999888	1	0.478869676589966	k	0	3	5
1	50	fields14.jpg	fields	A	18	yes	0.99989	1	0.461956977844238	k	0	3	3.5
1	51	parks44.jpg	parks	B	18	yes	0.99982	1	0.568015813827515	k	0	3	5
1	52	marshes16.jpg	marshes	X	16	no	0.999885	1	0.502107620239258	j	0	3	3.5
1	53	fields37.jpg	fields	A	19	yes	0.999891	1	0.654165267944336	k	0	3	3.5
1	54	parks28.jpg	parks	B	19	yes	0.999906	1	0.774256944656372	k	0	3	3.5
1	55	beaches50.jpg	beaches	X	18	yes	0.999966	1	0.491312742233276	k	0	3	3.5
1	56	marshes26.jpg	marshes	X	17	no	0.999953	1	0.528396844863892	j	0	3	2
1	57	fields54.jpg	fields	A	20	yes	0.999903	1	0.554438352584839	k	0	3	3.5
1	58	parks5.jpg	parks	B	20	yes	0.999921	1	0.471514940261841	k	0	3	3.5
1	59	forests54.jpg	forests	X	18	no	0.999827	1	0.551605701446533	j	0	3	5
1	60	lakes56.jpg	lakes	X	18	yes	0.999859	1	0.514712572097778	k	0	3	3.5
1	61	forests27.jpg	forests	X	19	no	0.99991	1	0.573784828186035	j	0	3	3.5
1	62	bridges4.jpg	bridges	A	19	yes	0.999904	1	0.498893976211548	k	0	3	3.5
1	63	lighthouses7.jpg	lighthouses	B	19	yes	0.999898	1	0.534940004348755	k	0	3	3.5
1	64	canyons41.jpg	canyons	X	18	no	0.999929	1	0.547972917556763	j	0	3	2
1	65	beaches21.jpg	beaches	X	19	yes	0.999909	1	0.630051851272583	k	0	3	2
1	66	marshes33.jpg	marshes	X	18	no	0.999891	1	0.558127880096436	j	0	3	2
1	67	lakes23.jpg	lakes	X	19	yes	0.999876	1	0.63020658493042	k	0	3	2
1	68	deserts32.jpg	deserts	X	18	no	0.999931	1	0.573207139968872	j	0	3	3.5
1	69	waterfalls15.jpg	waterfalls	A	19	no	0.999853	1	0.62127423286438	j	0	3	2
1	70	mountains54.jpg	mountains	B	19	no	0.999885	1	0.621333599090576	j	0	3	2
1	71	lakes55.jpg	lakes	X	20	yes	0.999895	1	0.904381990432739	k	0	3	2
1	72	marshes22.jpg	marshes	X	19	no	0.999906	1	0.788433790206909	j	0	3	5
1	73	bridges56.jpg	bridges	A	20	yes	0.999902	1	0.603513956069946	k	0	3	2
1	74	lighthouses23.jpg	lighthouses	B	20	yes	0.999927	1	0.623573780059815	k	0	3	3.5
1	75	beaches14.jpg	beaches	X	20	yes	0.999884	1	0.605657577514648	k	0	3	2
1	76	deserts48.jpg	deserts	X	19	no	0.999873	1	0.504675626754761	j	0	3	5
1	77	canyons38.jpg	canyons	X	19	no	0.99983	1	0.563801765441895	j	0	3	2
1	78	marshes13.jpg	marshes	X	20	no	0.999849	1	0.544849634170532	j	0	3	2
1	79	waterfalls35.jpg	waterfalls	A	20	no	0.999959	1	0.681933641433716	j	0	3	3.5
1	80	mountains56.jpg	mountains	B	20	no	0.999954	1	0.525995969772339	j	0	3	2
1	81	deserts5.jpg	deserts	X	20	no	0.999852	1	0.876047849655151	j	0	3	2
1	82	forests17.jpg	forests	X	20	no	0.999884	1	0.621155023574829	j	0	3	3.5
1	83	canyons40.jpg	canyons	X	20	no	0.999899	1	0.486218929290772	j	0	3	3.5
1	0	fields49.jpg	fields	A	21	yes	0.999983	1	0.706188440322876	k	0	4	5
1	1	parks56.jpg	parks	B	21	yes	1.000028	1	0.636237144470215	k	0	4	2
1	2	beaches1.jpg	beaches	X	21	yes	0.999905	1	0.535707712173462	k	0	4	2
1	3	deserts6.jpg	deserts	X	21	no	0.999986	1	0.532458543777466	j	0	4	5
1	4	fields5.jpg	fields	A	22	yes	0.999965	1	0.464565753936768	k	0	4	2
1	5	parks6.jpg	parks	B	22	yes	0.999995	1	0.628568410873413	k	0	4	3.5
1	6	marshes44.jpg	marshes	X	21	no	0.999931	1	0.548688411712647	j	0	4	2
1	7	beaches32.jpg	beaches	X	22	yes	1.000005	1	0.509689569473267	k	0	4	2
1	8	fields28.jpg	fields	A	23	yes	0.999893	1	0.484750747680664	k	0	4	2
1	9	parks4.jpg	parks	B	23	yes	0.999904	0	0.604796886444092	j	0	4	2
1	10	marshes19.jpg	marshes	X	22	no	0.999878	1	0.623837947845459	j	0	4	2
1	11	bridges25.jpg	bridges	A	21	yes	0.999998	1	0.729934453964233	k	0	4	5
1	12	lighthouses31.jpg	lighthouses	B	21	yes	0.999947	1	0.532000064849854	k	0	4	5
1	13	beaches45.jpg	beaches	X	23	yes	0.999937	1	0.494094848632813	k	0	4	5
1	14	bridges1.jpg	bridges	A	22	yes	0.999993	1	0.467314720153809	k	0	4	5
1	15	lighthouses2.jpg	lighthouses	B	22	yes	0.999922	1	0.55328893661499	k	0	4	2
1	16	canyons14.jpg	canyons	X	21	no	0.999996	1	0.507347583770752	j	0	4	2
1	17	beaches5.jpg	beaches	X	24	yes	1.000011	1	0.549423456192017	k	0	4	3.5
1	18	deserts7.jpg	deserts	X	22	no	0.999994	1	0.562464714050293	j	0	4	3.5
1	19	canyons27.jpg	canyons	X	22	no	0.999942	1	0.513563871383667	j	0	4	5
1	20	bridges53.jpg	bridges	A	23	yes	1	1	0.378657817840576	k	0	4	3.5
1	21	lighthouses10.jpg	lighthouses	B	23	yes	0.999952	1	0.430747985839844	k	0	4	3.5
1	22	forests36.jpg	forests	X	21	no	0.999919	1	0.531794786453247	j	0	4	3.5
1	23	waterfalls29.jpg	waterfalls	A	21	no	1.000011	1	0.598968744277954	j	0	4	3.5
1	24	mountains30.jpg	mountains	B	21	no	0.999946	1	0.828948020935059	j	0	4	2
1	25	marshes53.jpg	marshes	X	23	no	0.9999	1	0.52798867225647	j	0	4	2
1	26	lakes24.jpg	lakes	X	21	yes	0.999992	1	0.74605655670166	k	0	4	3.5
1	27	fields36.jpg	fields	A	24	yes	0.999951	1	0.456103563308716	k	0	4	3.5
1	28	parks7.jpg	parks	B	24	yes	0.999946	1	0.519223928451538	k	0	4	5
1	29	forests22.jpg	forests	X	22	no	0.999968	1	0.531300067901611	j	0	4	5
1	30	fields18.jpg	fields	A	25	yes	0.999937	1	0.474385738372803	k	0	4	2
1	31	parks27.jpg	parks	B	25	yes	0.999822	1	0.651467561721802	k	0	4	3.5
1	32	lakes30.jpg	lakes	X	22	yes	0.999995	1	0.64447283744812	k	0	4	2
1	33	beaches55.jpg	beaches	X	25	yes	0.999901	1	0.612559795379639	k	0	4	2
1	34	forests19.jpg	forests	X	23	no	1.000013	1	0.49061393737793	j	0	4	3.5
1	35	waterfalls13.jpg	waterfalls	A	22	no	0.999866	1	0.478655099868774	j	0	4	3.5
1	36	mountains45.jpg	mountains	B	22	no	1.000008	1	0.46776270866394	j	0	4	3.5
1	37	lakes2.jpg	lakes	X	23	yes	1.000023	1	0.485953807830811	k	0	4	3.5
1	38	forests41.jpg	forests	X	24	no	0.999769	1	0.533837795257568	j	0	4	2
1	39	bridges44.jpg	bridges	A	24	yes	0.999921	1	0.610016584396362	k	0	4	3.5
1	40	lighthouses49.jpg	lighthouses	B	24	yes	1.000003	1	0.538121700286865	k	0	4	3.5
1	41	waterfalls16.jpg	waterfalls	A	23	no	1.000001	1	0.570069789886475	j	0	4	5
1	42	mountains38.jpg	mountains	B	23	no	0.999998	1	0.727210521697998	j	0	4	3.5
1	43	forests28.jpg	forests	X	25	no	0.999849	1	0.792285680770874	j	0	4	3.5
1	44	canyons47.jpg	canyons	X	23	no	1.000186	1	0.580377817153931	j	0	4	3.5
1	45	lakes16.jpg	lakes	X	24	yes	0.99997	1	0.56472373008728	k	0	4	2
1	46	deserts46.jpg	deserts	X	23	no	0.999998	1	0.652632713317871	j	0	4	2
1	47	canyons22.jpg	canyons	X	24	no	0.999961	1	0.625487565994263	j	0	4	3.5
1	48	bridges35.jpg	bridges	A	25	yes	0.999448	1	0.545915603637695	k	0	4	2
1	49	lighthouses43.jpg	lighthouses	B	25	yes	0.999976	1	0.522645950317383	k	0	4	2
1	50	fields45.jpg	fields	A	26	yes	0.999969	1	0.778717517852783	k	0	4	3.5
1	51	parks29.jpg	parks	B	26	yes	1.000013	1	0.85478949546814	k	0	4	2
1	52	forests50.jpg	forests	X	26	no	1.000011	1	0.54789662361145	j	0	4	2
1	53	canyons16.jpg	canyons	X	25	no	0.999918	1	0.627855777740479	j	0	4	2
1	54	fields29.jpg	fields	A	27	yes	0.999997	1	0.575891733169556	k	0	4	3.5
1	55	parks11.jpg	parks	B	27	yes	1.000127	1	0.691037654876709	k	0	4	3.5
1	56	canyons42.jpg	canyons	X	26	no	0.999837	1	0.538040637969971	j	0	4	5
1	57	marshes15.jpg	marshes	X	24	no	1.000055	1	0.649180412292481	j	0	4	2
1	58	waterfalls7.jpg	waterfalls	A	24	no	0.999918	1	0.612166404724121	j	0	4	2
1	59	mountains18.jpg	mountains	B	24	no	0.999956	1	0.556257724761963	j	0	4	5
1	60	lakes26.jpg	lakes	X	25	yes	1.000007	1	0.568253517150879	k	0	4	2
1	61	deserts56.jpg	deserts	X	24	no	1.00004	1	0.545367479324341	j	0	4	3.5
1	62	canyons28.jpg	canyons	X	27	no	1.00007	1	0.505496740341187	j	0	4	2
1	63	marshes21.jpg	marshes	X	25	no	0.9999	1	0.488483905792236	j	0	4	5
1	64	lakes49.jpg	lakes	X	26	yes	0.999943	1	0.61563777923584	k	0	4	2
1	65	deserts38.jpg	deserts	X	25	no	1.000008	1	0.725728750228882	j	0	4	3.5
1	66	beaches26.jpg	beaches	X	26	yes	0.999907	1	0.556764125823975	k	0	4	5
1	67	forests5.jpg	forests	X	27	no	1.000004	1	0.524831771850586	j	0	4	5
1	68	lakes31.jpg	lakes	X	27	yes	1	1	0.590962648391724	k	0	4	2
1	69	bridges5.jpg	bridges	A	26	yes	0.999907	1	0.595975637435913	k	0	4	3.5
1	70	lighthouses35.jpg	lighthouses	B	26	yes	0.999995	1	0.554106712341309	k	0	4	3.5
1	71	deserts33.jpg	deserts	X	26	no	1.000005	1	0.477077960968018	j	0	4	3.5
1	72	waterfalls17.jpg	waterfalls	A	25	no	0.999907	1	0.531304597854614	j	0	4	2
1	73	mountains3.jpg	mountains	B	25	no	0.999954	1	0.741215705871582	j	0	4	5
1	74	bridges10.jpg	bridges	A	27	yes	1.000001	1	0.526342630386353	k	0	4	3.5
1	75	lighthouses52.jpg	lighthouses	B	27	yes	0.999982	0	0.5564124584198	j	0	4	3.5
1	76	waterfalls2.jpg	waterfalls	A	26	no	0.999995	1	0.581581592559815	j	0	4	3.5
1	77	mountains12.jpg	mountains	B	26	no	0.999991	1	0.785633563995361	j	0	4	2
1	78	beaches17.jpg	beaches	X	27	yes	1.000022	1	0.526656866073608	k	0	4	2
1	79	marshes45.jpg	marshes	X	26	no	1.000312	1	1.02771973609924	j	0	4	2
1	80	waterfalls10.jpg	waterfalls	A	27	no	0.99999	1	0.504749774932861	j	0	4	3.5
1	81	mountains33.jpg	mountains	B	27	no	0.999877	1	0.563250541687012	j	0	4	3.5
1	82	deserts4.jpg	deserts	X	27	no	1.000015	1	0.499915599822998	j	0	4	5
1	83	marshes56.jpg	marshes	X	27	no	1.000012	1	0.520043849945068	j	0	4	5
1	0	waterfalls52.jpg	waterfalls	A	28	no	0.999964	1	0.602086544036865	j	0	5	5
1	1	lakes14.jpg	lakes	X	28	yes	0.999872	1	0.526480674743652	k	0	5	3.5
1	2	fields11.jpg	fields	A	28	yes	0.999806	1	0.504517555236816	k	0	5	2
1	3	lighthouses19.jpg	lighthouses	B	28	yes	0.999798	1	0.458634614944458	k	0	5	3.5
1	4	deserts28.jpg	deserts	X	28	no	0.999696	1	0.484743118286133	j	0	5	3.5
1	5	marshes39.jpg	marshes	X	28	no	0.999711	1	0.53374981880188	j	0	5	5
1	6	lakes27.jpg	lakes	X	29	yes	0.999676	1	0.535844802856445	k	0	5	5
1	7	fields50.jpg	fields	A	29	yes	1.00005	1	0.436940670013428	k	0	5	2
1	8	forests42.jpg	forests	X	28	no	0.999902	1	0.487947463989258	j	0	5	3.5
1	9	canyons10.jpg	canyons	X	28	no	0.999993	1	0.518108606338501	j	0	5	3.5
1	10	fields6.jpg	fields	A	30	yes	0.999936	1	0.730133771896362	k	0	5	3.5
1	11	waterfalls36.jpg	waterfalls	A	29	no	0.999935	1	0.640234470367432	j	0	5	2
1	12	lakes37.jpg	lakes	X	30	yes	0.999948	1	0.615279674530029	k	0	5	3.5
1	13	mountains48.jpg	mountains	B	28	no	0.999985	1	0.561372518539429	j	0	5	3.5
1	14	beaches40.jpg	beaches	X	28	yes	1.000012	1	0.674446821212769	k	0	5	3.5
1	15	deserts18.jpg	deserts	X	29	no	0.999997	1	0.486518621444702	j	0	5	3.5
1	16	forests9.jpg	forests	X	29	no	1.00009	1	0.5205397605896	j	0	5	3.5
1	17	canyons12.jpg	canyons	X	29	no	0.999942	1	0.568657875061035	j	0	5	2
1	18	deserts12.jpg	deserts	X	30	no	0.999931	1	0.533820152282715	j	0	5	3.5
1	19	canyons45.jpg	canyons	X	30	no	1.000009	1	0.499809741973877	j	0	5	3.5
1	20	fields17.jpg	fields	A	31	yes	0.999994	1	0.597881555557251	k	0	5	2
1	21	waterfalls32.jpg	waterfalls	A	30	no	0.999946	1	0.507896661758423	j	0	5	2
1	22	bridges12.jpg	bridges	A	28	yes	0.99989	1	0.567979574203491	k	0	5	2
1	23	forests40.jpg	forests	X	30	no	0.999983	1	0.643003702163696	j	0	5	5
1	24	waterfalls21.jpg	waterfalls	A	31	no	1.00001	1	0.477080821990967	j	0	5	3.5
1	25	canyons32.jpg	canyons	X	31	no	0.999909	1	0.513202667236328	j	0	5	2
1	26	lakes38.jpg	lakes	X	31	yes	0.99999	1	0.616204500198364	k	0	5	5
1	27	mountains42.jpg	mountains	B	29	no	0.999973	1	0.406347513198853	j	0	5	5
1	28	deserts17.jpg	deserts	X	31	no	0.99992	1	0.496423959732056	j	0	5	3.5
1	29	parks10.jpg	parks	B	28	yes	1.000025	1	0.491487741470337	k	0	5	3.5
1	30	bridges55.jpg	bridges	A	29	yes	1.000019	1	0.711560487747192	k	0	5	3.5
1	31	canyons24.jpg	canyons	X	32	no	0.99998	1	0.523625373840332	j	0	5	2
1	32	deserts55.jpg	deserts	X	32	no	0.999895	1	0.54466724395752	j	0	5	2
1	33	parks15.jpg	parks	B	29	yes	0.999944	1	0.584732294082642	k	0	5	2
1	34	lakes22.jpg	lakes	X	32	yes	0.999993	1	0.542783737182617	k	0	5	5
1	35	marshes14.jpg	marshes	X	29	no	0.999997	1	0.52591872215271	j	0	5	2
1	36	beaches41.jpg	beaches	X	29	yes	0.999995	0	NaN	n	0	5	2
1	37	lakes25.jpg	lakes	X	33	yes	0.99998	1	0.50297474861145	k	0	5	5
1	38	forests43.jpg	forests	X	31	no	0.999939	1	0.531056642532349	j	0	5	3.5
1	39	bridges7.jpg	bridges	A	30	yes	0.999922	1	0.502211093902588	k	0	5	3.5
1	40	lighthouses37.jpg	lighthouses	B	29	yes	1	1	0.475313663482666	k	0	5	3.5
1	41	beaches9.jpg	beaches	X	30	yes	0.999913	1	0.445318937301636	k	0	5	3.5
1	42	bridges29.jpg	bridges	A	31	yes	0.999983	1	0.371386528015137	k	0	5	2
1	43	lakes43.jpg	lakes	X	34	yes	1.000006	1	0.630430698394775	k	0	5	2
1	44	forests55.jpg	forests	X	32	no	0.999996	1	0.505484819412231	j	0	5	3.5
1	45	mountains19.jpg	mountains	B	30	no	0.999929	1	0.553569793701172	j	0	5	2
1	46	beaches52.jpg	beaches	X	31	yes	0.999932	1	0.529645681381226	k	0	5	3.5
1	47	fields20.jpg	fields	A	32	yes	0.999996	1	0.511661529541016	k	0	5	2
1	48	forests51.jpg	forests	X	33	no	1.000306	0	NaN	n	0	5	2
1	49	lighthouses45.jpg	lighthouses	B	30	yes	1.000001	1	0.490791797637939	k	0	5	2
1	50	parks42.jpg	parks	B	30	yes	0.999922	1	0.49481201171875	k	0	5	5
1	51	beaches44.jpg	beaches	X	32	yes	0.999975	1	0.528949499130249	k	0	5	2
1	52	fields15.jpg	fields	A	33	yes	0.999999	1	0.482983827590942	k	0	5	3.5
1	53	marshes47.jpg	marshes	X	30	no	0.999963	1	0.452061414718628	j	0	5	2
1	54	deserts15.jpg	deserts	X	33	no	0.99996	1	0.529072761535645	j	0	5	5
1	55	marshes46.jpg	marshes	X	31	no	1.000058	1	0.478181600570679	j	0	5	3.5
1	56	lighthouses26.jpg	lighthouses	B	31	yes	0.999997	1	0.448365449905396	k	0	5	2
1	57	waterfalls22.jpg	waterfalls	A	32	no	1.000002	1	0.545365571975708	j	0	5	5
1	58	forests46.jpg	forests	X	34	no	1.00005	1	0.491384506225586	j	0	5	2
1	59	waterfalls54.jpg	waterfalls	A	33	no	0.999991	1	0.545520782470703	j	0	5	3.5
1	60	mountains25.jpg	mountains	B	31	no	0.999997	1	0.592485904693604	j	0	5	5
1	61	canyons8.jpg	canyons	X	33	no	1.000001	1	0.529694557189941	j	0	5	2
1	62	marshes25.jpg	marshes	X	32	no	1.000001	1	0.516810417175293	j	0	5	3.5
1	63	parks48.jpg	parks	B	31	yes	1.000009	1	0.523797988891602	k	0	5	3.5
1	64	bridges32.jpg	bridges	A	32	yes	1.000017	1	0.478863716125488	k	0	5	3.5
1	65	lighthouses24.jpg	lighthouses	B	32	yes	0.999992	1	0.488021612167358	k	0	5	2
1	66	mountains31.jpg	mountains	B	32	no	0.999922	1	0.536011695861816	j	0	5	2
1	67	fields40.jpg	fields	A	34	yes	1.000001	1	0.544076442718506	k	0	5	3.5
1	68	canyons23.jpg	canyons	X	34	no	0.999979	1	0.510102510452271	j	0	5	2
1	69	marshes3.jpg	marshes	X	33	no	1.000062	1	0.4971604347229	j	0	5	3.5
1	70	parks23.jpg	parks	B	32	yes	1.000045	1	0.422285556793213	k	0	5	5
1	71	bridges51.jpg	bridges	A	33	yes	0.999978	1	0.437333583831787	k	0	5	5
1	72	lighthouses20.jpg	lighthouses	B	33	yes	0.999991	1	0.513486385345459	k	0	5	2
1	73	beaches2.jpg	beaches	X	33	yes	0.999995	1	0.640534639358521	k	0	5	3.5
1	74	mountains2.jpg	mountains	B	33	no	1.000056	1	0.583551645278931	j	0	5	2
1	75	beaches33.jpg	beaches	X	34	yes	0.999997	1	0.618577718734741	k	0	5	2
1	76	lighthouses16.jpg	lighthouses	B	34	yes	0.999985	1	0.539632558822632	k	0	5	5
1	77	bridges11.jpg	bridges	A	34	yes	0.999929	1	0.504719018936157	k	0	5	5
1	78	parks20.jpg	parks	B	33	yes	0.999904	1	0.535842657089233	k	0	5	5
1	79	deserts41.jpg	deserts	X	34	no	0.999976	1	0.552947998046875	j	0	5	2
1	80	parks22.jpg	parks	B	34	yes	0.999993	1	0.582001686096191	k	0	5	3.5
1	81	mountains14.jpg	mountains	B	34	no	1.000013	1	0.532074689865112	j	0	5	2
1	82	waterfalls41.jpg	waterfalls	A	34	no	0.999967	1	0.857114553451538	j	0	5	5
1	83	marshes1.jpg	marshes	X	34	no	0.999929	1	0.490228652954102	j	0	5	2
2	0	lakes39.jpg	lakes	X	0	yes	1.000087	0	NaN	n	1	1	2
2	1	lighthouses40.jpg	lighthouses	X	0	yes	0.999779	1	0.5644211769104	j	1	1	5
2	2	fields40.jpg	fields	X	0	yes	0.999979	1	0.598642826080322	j	1	1	2
2	3	bridges32.jpg	bridges	X	0	yes	0.999973	1	0.621707677841187	j	1	1	3.5
2	4	lakes20.jpg	lakes	X	1	yes	0.9998	1	0.672733306884766	j	1	1	2
2	5	marshes11.jpg	marshes	A	0	no	0.999692	1	0.806774139404297	k	1	1	2
2	6	deserts17.jpg	deserts	A	0	no	0.999955	1	0.892866849899292	k	1	1	2
2	7	canyons50.jpg	canyons	A	0	no	0.999964	1	0.853890180587769	k	1	1	2
2	8	bridges31.jpg	bridges	X	1	yes	0.999774	1	0.621935367584229	j	1	1	2
2	9	waterfalls8.jpg	waterfalls	B	0	no	0.999716	1	0.643977165222168	k	1	1	3.5
2	10	forests42.jpg	forests	X	0	no	0.999963	1	0.783105134963989	k	1	1	3.5
2	11	bridges24.jpg	bridges	X	2	yes	0.999948	1	0.697139739990234	j	1	1	2
2	12	deserts33.jpg	deserts	A	1	no	0.999902	1	0.776188373565674	k	1	1	2
2	13	parks18.jpg	parks	B	0	yes	0.999678	1	0.650271892547607	j	1	1	5
2	14	canyons38.jpg	canyons	A	1	no	1.00028	1	1.13233375549316	k	1	1	2
2	15	fields1.jpg	fields	X	1	yes	0.999743	1	0.587419509887695	j	1	1	3.5
2	16	mountains33.jpg	mountains	B	0	no	0.999737	1	0.772473335266113	k	1	1	5
2	17	marshes28.jpg	marshes	A	1	no	0.999697	1	0.713579893112183	k	1	1	3.5
2	18	parks39.jpg	parks	B	1	yes	0.999654	0	0.671689033508301	k	1	1	3.5
2	19	lakes7.jpg	lakes	X	2	yes	0.99997	1	0.512705087661743	j	1	1	3.5
2	20	canyons51.jpg	canyons	A	2	no	0.999941	1	1.24580478668213	k	1	1	2
2	21	mountains47.jpg	mountains	B	1	no	1.000065	1	0.631878137588501	k	1	1	5
2	22	parks5.jpg	parks	B	2	yes	0.999744	1	0.862973928451538	j	1	1	3.5
2	23	lighthouses11.jpg	lighthouses	X	1	yes	0.999786	0	NaN	n	1	1	2
2	24	deserts30.jpg	deserts	A	2	no	0.999953	1	0.768074035644531	k	1	1	5
2	25	beaches47.jpg	beaches	X	0	yes	0.999716	1	0.877199172973633	j	1	1	2
2	26	fields2.jpg	fields	X	2	yes	0.999699	1	0.852221965789795	j	1	1	3.5
2	27	parks25.jpg	parks	B	3	yes	0.999936	1	0.6663818359375	j	1	1	2
2	28	waterfalls55.jpg	waterfalls	B	1	no	0.999858	1	0.793345928192139	k	1	1	2
2	29	lighthouses42.jpg	lighthouses	X	2	yes	0.999701	1	0.716413259506226	j	1	1	5
2	30	waterfalls24.jpg	waterfalls	B	2	no	0.99994	1	0.719539642333984	k	1	1	5
2	31	forests39.jpg	forests	X	1	no	0.999753	1	0.722591638565064	k	1	1	2
2	32	waterfalls44.jpg	waterfalls	B	3	no	0.999641	1	0.745633840560913	k	1	1	2
2	33	lakes43.jpg	lakes	X	3	yes	1.016742	1	0.997689962387085	j	1	1	2
2	34	deserts36.jpg	deserts	A	3	no	0.999968	1	0.584783315658569	k	1	1	3.5
2	35	canyons7.jpg	canyons	A	3	no	0.999922	1	0.703840970993042	k	1	1	3.5
2	36	lakes22.jpg	lakes	X	4	yes	1.000038	1	0.996915102005005	j	1	1	5
2	37	bridges19.jpg	bridges	X	3	yes	0.999952	1	0.797030925750732	j	1	1	3.5
2	38	fields13.jpg	fields	X	3	yes	0.999516	1	0.744093656539917	j	1	1	5
2	39	beaches40.jpg	beaches	X	1	yes	0.999703	1	0.6021568775177	j	1	1	2
2	40	lakes30.jpg	lakes	X	5	yes	0.999928	1	0.548245668411255	j	1	1	3.5
2	41	mountains46.jpg	mountains	B	2	no	0.999984	1	0.819378852844238	k	1	1	2
2	42	forests21.jpg	forests	X	2	no	0.999717	1	0.679670333862305	k	1	1	5
2	43	marshes33.jpg	marshes	A	2	no	0.999965	1	0.820449113845825	k	1	1	5
2	44	waterfalls50.jpg	waterfalls	B	4	no	1.000008	1	1.04361367225647	k	1	1	5
2	45	beaches13.jpg	beaches	X	2	yes	0.999698	1	0.603644847869873	j	1	1	3.5
2	46	forests48.jpg	forests	X	3	no	0.999976	1	0.837737321853638	k	1	1	3.5
2	47	fields31.jpg	fields	X	4	yes	0.999746	1	0.575831651687622	j	1	1	3.5
2	48	mountains27.jpg	mountains	B	3	no	0.999903	1	1.20494079589844	k	1	1	2
2	49	lakes4.jpg	lakes	X	6	yes	0.999966	1	0.728988885879517	j	1	1	2
2	50	lighthouses46.jpg	lighthouses	X	3	yes	0.999939	1	0.575044631958008	j	1	1	2
2	51	deserts42.jpg	deserts	A	4	no	0.999951	1	0.677072763442993	k	1	1	5
2	52	forests29.jpg	forests	X	4	no	0.999896	0	NaN	n	1	1	2
2	53	marshes1.jpg	marshes	A	3	no	0.999953	1	0.597250699996948	k	1	1	3.5
2	54	canyons19.jpg	canyons	A	4	no	0.999915	1	0.482300758361816	k	1	1	3.5
2	55	bridges47.jpg	bridges	X	4	yes	0.999776	1	0.653396606445313	j	1	1	2
2	56	deserts29.jpg	deserts	A	5	no	1.000122	1	1.53546285629272	k	1	1	2
2	57	fields33.jpg	fields	X	5	yes	0.999974	1	0.562506198883057	j	1	1	2
2	58	bridges37.jpg	bridges	X	5	yes	0.999937	1	0.724550724029541	j	1	1	5
2	59	mountains1.jpg	mountains	B	4	no	0.999729	0	NaN	n	1	1	3.5
2	60	bridges27.jpg	bridges	X	6	yes	1.000265	1	1.11666083335876	j	1	1	3.5
2	61	lighthouses48.jpg	lighthouses	X	4	yes	0.999931	1	0.948748826980591	j	1	1	3.5
2	62	parks11.jpg	parks	B	4	yes	0.999704	1	0.73382306098938	j	1	1	2
2	63	forests2.jpg	forests	X	5	no	0.999724	1	0.820872306823731	k	1	1	3.5
2	64	canyons32.jpg	canyons	A	5	no	1.000117	1	1.02993988990784	k	1	1	2
2	65	beaches53.jpg	beaches	X	3	yes	0.999954	1	0.696039915084839	j	1	1	3.5
2	66	waterfalls52.jpg	waterfalls	B	5	no	0.999679	1	0.791078805923462	k	1	1	3.5
2	67	marshes51.jpg	marshes	A	4	no	0.999922	1	0.801231384277344	k	1	1	3.5
2	68	lighthouses41.jpg	lighthouses	X	5	yes	0.999933	1	0.692255735397339	j	1	1	2
2	69	deserts3.jpg	deserts	A	6	no	0.999734	1	0.923283815383911	k	1	1	3.5
2	70	canyons17.jpg	canyons	A	6	no	0.99967	1	0.876437664031982	k	1	1	3.5
2	71	parks56.jpg	parks	B	5	yes	1.000046	1	0.499415874481201	j	1	1	3.5
2	72	mountains14.jpg	mountains	B	5	no	0.999756	1	0.753552675247192	k	1	1	2
2	73	marshes43.jpg	marshes	A	5	no	1.000096	1	1.0335681438446	k	1	1	3.5
2	74	waterfalls1.jpg	waterfalls	B	6	no	0.999954	1	0.613722562789917	k	1	1	3.5
2	75	beaches27.jpg	beaches	X	4	yes	0.999897	1	0.849769115447998	j	1	1	2
2	76	lighthouses44.jpg	lighthouses	X	6	yes	0.999741	1	0.752795457839966	j	1	1	5
2	77	fields23.jpg	fields	X	6	yes	1.000011	1	0.571914434432983	j	1	1	3.5
2	78	beaches39.jpg	beaches	X	5	yes	0.999974	0	NaN	n	1	1	5
2	79	forests12.jpg	forests	X	6	no	0.999777	1	0.666120767593384	k	1	1	5
2	80	mountains44.jpg	mountains	B	6	no	1.000107	0	NaN	n	1	1	3.5
2	81	marshes17.jpg	marshes	A	6	no	1.00015	0	NaN	n	1	1	2
2	82	beaches56.jpg	beaches	X	6	yes	0.999784	1	0.717331171035767	j	1	1	5
2	83	parks16.jpg	parks	B	6	yes	1.000063	1	0.6733238697052	j	1	1	3.5
2	0	lighthouses56.jpg	lighthouses	X	7	yes	0.999072	1	0.678714036941528	j	1	2	5
2	1	lakes31.jpg	lakes	X	7	yes	0.998992	1	0.635007619857788	j	1	2	3.5
2	2	beaches12.jpg	beaches	X	7	yes	0.999166	1	0.981178522109985	j	1	2	2
2	3	fields30.jpg	fields	X	7	yes	0.999488	1	0.629244327545166	j	1	2	2
2	4	forests55.jpg	forests	X	7	no	0.998961	1	0.72823166847229	k	1	2	3.5
2	5	beaches52.jpg	beaches	X	8	yes	0.999877	1	0.579344272613525	j	1	2	5
2	6	lighthouses37.jpg	lighthouses	X	8	yes	0.999811	1	0.614414691925049	j	1	2	3.5
2	7	deserts4.jpg	deserts	A	7	no	0.998814	1	0.794491767883301	k	1	2	5
2	8	parks15.jpg	parks	B	7	yes	0.998729	1	0.578612804412842	j	1	2	2
2	9	lakes19.jpg	lakes	X	8	yes	0.99943	1	0.698674917221069	j	1	2	3.5
2	10	bridges4.jpg	bridges	X	7	yes	0.999498	1	0.519773721694946	j	1	2	2
2	11	lighthouses21.jpg	lighthouses	X	9	yes	0.998542	1	0.577800989151001	j	1	2	3.5
2	12	canyons33.jpg	canyons	A	7	no	0.999721	1	0.773868083953857	k	1	2	2
2	13	mountains20.jpg	mountains	B	7	no	0.999623	1	0.771872520446777	k	1	2	2
2	14	fields52.jpg	fields	X	8	yes	0.999706	1	0.864991188049316	j	1	2	3.5
2	15	beaches2.jpg	beaches	X	9	yes	0.999094	1	0.543055295944214	j	1	2	2
2	16	deserts47.jpg	deserts	A	8	no	0.999208	1	0.743096351623535	k	1	2	5
2	17	parks55.jpg	parks	B	8	yes	0.99882	1	0.511231660842896	j	1	2	3.5
2	18	fields20.jpg	fields	X	9	yes	0.998876	1	0.553282022476196	j	1	2	2
2	19	bridges1.jpg	bridges	X	8	yes	0.999005	1	0.561324119567871	j	1	2	2
2	20	canyons16.jpg	canyons	A	8	no	0.998365	1	0.691330909729004	k	1	2	2
2	21	mountains55.jpg	mountains	B	8	no	0.998334	1	0.650461196899414	k	1	2	3.5
2	22	bridges12.jpg	bridges	X	9	yes	0.998768	1	0.482537508010864	j	1	2	3.5
2	23	marshes27.jpg	marshes	A	7	no	0.998722	1	0.821570158004761	k	1	2	3.5
2	24	waterfalls26.jpg	waterfalls	B	7	no	0.998526	1	0.74868655204773	k	1	2	5
2	25	forests9.jpg	forests	X	8	no	0.998609	1	0.675787687301636	k	1	2	3.5
2	26	marshes5.jpg	marshes	A	8	no	0.999182	0	1.09084558486938	j	1	2	3.5
2	27	waterfalls18.jpg	waterfalls	B	8	no	0.998209	1	0.658914089202881	k	1	2	3.5
2	28	lighthouses32.jpg	lighthouses	X	10	yes	0.99851	1	0.559988498687744	j	1	2	3.5
2	29	lakes35.jpg	lakes	X	9	yes	0.9988	1	1.03703904151917	j	1	2	5
2	30	deserts34.jpg	deserts	A	9	no	0.999914	1	0.615191698074341	k	1	2	5
2	31	parks35.jpg	parks	B	9	yes	0.999903	1	0.816275596618652	j	1	2	2
2	32	canyons40.jpg	canyons	A	9	no	0.999877	1	0.871356725692749	k	1	2	2
2	33	mountains50.jpg	mountains	B	9	no	0.999896	1	0.865398406982422	k	1	2	2
2	34	beaches16.jpg	beaches	X	10	yes	1.0001	1	1.08441591262817	j	1	2	2
2	35	bridges26.jpg	bridges	X	10	yes	0.99997	1	0.586491107940674	j	1	2	3.5
2	36	lakes45.jpg	lakes	X	10	yes	1.000149	0	NaN	n	1	2	3.5
2	37	lighthouses50.jpg	lighthouses	X	11	yes	1.000001	1	0.45460033416748	j	1	2	5
2	38	forests53.jpg	forests	X	9	no	0.999949	1	0.770770788192749	k	1	2	2
2	39	marshes9.jpg	marshes	A	9	no	1.000066	1	0.945698022842407	k	1	2	5
2	40	waterfalls12.jpg	waterfalls	B	9	no	0.999944	1	0.804858684539795	k	1	2	5
2	41	forests25.jpg	forests	X	10	no	0.999956	1	0.873998880386353	k	1	2	2
2	42	lighthouses49.jpg	lighthouses	X	12	yes	0.999961	1	0.650038957595825	j	1	2	2
2	43	lakes54.jpg	lakes	X	11	yes	1.000177	0	NaN	n	1	2	5
2	44	beaches4.jpg	beaches	X	11	yes	0.999916	1	0.68021559715271	j	1	2	2
2	45	canyons8.jpg	canyons	A	10	no	0.999975	1	0.825178861618042	k	1	2	5
2	46	mountains13.jpg	mountains	B	10	no	0.999926	1	0.727378845214844	k	1	2	3.5
2	47	marshes54.jpg	marshes	A	10	no	0.999949	1	0.914344787597656	k	1	2	2
2	48	waterfalls14.jpg	waterfalls	B	10	no	0.99994	1	0.714515686035156	k	1	2	3.5
2	49	bridges13.jpg	bridges	X	11	yes	0.999974	1	0.53654408454895	j	1	2	3.5
2	50	marshes42.jpg	marshes	A	11	no	0.999954	1	0.826614618301392	k	1	2	3.5
2	51	waterfalls20.jpg	waterfalls	B	11	no	1.000062	1	1.25362229347229	k	1	2	3.5
2	52	canyons44.jpg	canyons	A	11	no	0.999972	1	0.873759031295776	k	1	2	3.5
2	53	mountains56.jpg	mountains	B	11	no	0.999949	1	0.576814651489258	k	1	2	5
2	54	deserts10.jpg	deserts	A	10	no	1.000041	0	NaN	n	1	2	3.5
2	55	parks12.jpg	parks	B	10	yes	0.999936	1	0.575015783309937	j	1	2	3.5
2	56	fields53.jpg	fields	X	10	yes	0.999687	1	0.544084072113037	j	1	2	5
2	57	beaches41.jpg	beaches	X	12	yes	0.999961	1	0.563196897506714	j	1	2	3.5
2	58	deserts28.jpg	deserts	A	11	no	0.99997	1	0.839300155639648	k	1	2	2
2	59	parks9.jpg	parks	B	11	yes	0.999975	1	0.597302913665772	j	1	2	2
2	60	marshes35.jpg	marshes	A	12	no	0.999974	1	0.786358118057251	k	1	2	2
2	61	waterfalls17.jpg	waterfalls	B	12	no	0.999964	1	0.840415954589844	k	1	2	5
2	62	forests37.jpg	forests	X	11	no	0.999962	1	0.667520999908447	k	1	2	3.5
2	63	bridges45.jpg	bridges	X	12	yes	0.999957	1	0.576610803604126	j	1	2	3.5
2	64	deserts51.jpg	deserts	A	12	no	0.999941	1	0.7306809425354	k	1	2	2
2	65	parks36.jpg	parks	B	12	yes	0.999984	1	0.62071704864502	j	1	2	5
2	66	fields46.jpg	fields	X	11	yes	0.999947	1	0.595805644989014	j	1	2	2
2	67	marshes39.jpg	marshes	A	13	no	0.999961	1	0.938860893249512	k	1	2	2
2	68	waterfalls22.jpg	waterfalls	B	13	no	0.999976	1	0.906929016113281	k	1	2	5
2	69	forests6.jpg	forests	X	12	no	0.99994	1	0.865036725997925	k	1	2	3.5
2	70	canyons22.jpg	canyons	A	12	no	0.999953	1	0.830142736434937	k	1	2	2
2	71	mountains40.jpg	mountains	B	12	no	0.99996	1	0.80618691444397	k	1	2	2
2	72	fields38.jpg	fields	X	12	yes	0.999981	1	0.561237096786499	j	1	2	3.5
2	73	bridges43.jpg	bridges	X	13	yes	1.000317	1	1.15228271484375	j	1	2	3.5
2	74	deserts54.jpg	deserts	A	13	no	0.999955	1	0.516400575637817	k	1	2	3.5
2	75	parks28.jpg	parks	B	13	yes	0.999937	1	0.854469776153565	j	1	2	2
2	76	fields47.jpg	fields	X	13	yes	1.000186	1	1.00351691246033	j	1	2	2
2	77	lakes36.jpg	lakes	X	12	yes	0.999969	1	0.573569059371948	j	1	2	2
2	78	beaches14.jpg	beaches	X	13	yes	0.999982	1	0.938572406768799	j	1	2	2
2	79	canyons34.jpg	canyons	A	13	no	0.999922	1	0.846663236618042	k	1	2	2
2	80	mountains10.jpg	mountains	B	13	no	0.999943	1	0.713718891143799	k	1	2	3.5
2	81	lakes52.jpg	lakes	X	13	yes	0.999941	1	0.476790904998779	j	1	2	2
2	82	lighthouses53.jpg	lighthouses	X	13	yes	0.999942	1	0.795846939086914	j	1	2	3.5
2	83	forests44.jpg	forests	X	13	no	0.999961	1	0.740914821624756	k	1	2	5
2	0	deserts12.jpg	deserts	A	14	no	0.999652	1	0.742074012756348	k	1	3	3.5
2	1	parks31.jpg	parks	B	14	yes	0.99989	1	0.483058214187622	j	1	3	2
2	2	bridges42.jpg	bridges	X	14	yes	0.999676	1	0.524569749832153	j	1	3	2
2	3	marshes31.jpg	marshes	A	14	no	0.999939	1	0.56722354888916	k	1	3	2
2	4	waterfalls41.jpg	waterfalls	B	14	no	0.999938	1	0.789313793182373	k	1	3	2
2	5	fields19.jpg	fields	X	14	yes	0.999924	1	0.546346426010132	j	1	3	3.5
2	6	deserts20.jpg	deserts	A	15	no	0.999961	1	0.80838680267334	k	1	3	2
2	7	parks7.jpg	parks	B	15	yes	1.000125	1	0.667442798614502	j	1	3	3.5
2	8	beaches10.jpg	beaches	X	14	yes	0.999822	1	0.82620120048523	j	1	3	2
2	9	lighthouses6.jpg	lighthouses	X	14	yes	0.999894	1	0.700631141662598	j	1	3	2
2	10	forests15.jpg	forests	X	14	no	0.999959	1	1.02171564102173	k	1	3	3.5
2	11	lakes28.jpg	lakes	X	14	yes	0.999906	1	0.65375542640686	j	1	3	5
2	12	deserts22.jpg	deserts	A	16	no	1.000101	1	1.07785248756409	k	1	3	3.5
2	13	parks3.jpg	parks	B	16	yes	0.999915	1	0.770936489105225	j	1	3	5
2	14	beaches36.jpg	beaches	X	15	yes	0.999934	1	0.831999778747559	j	1	3	5
2	15	deserts44.jpg	deserts	A	17	no	0.999926	1	0.924151659011841	k	1	3	2
2	16	parks37.jpg	parks	B	17	yes	0.999897	1	0.652208089828491	j	1	3	2
2	17	lakes16.jpg	lakes	X	15	yes	0.999931	1	0.761204719543457	j	1	3	3.5
2	18	marshes55.jpg	marshes	A	15	no	0.999956	1	0.838281631469727	k	1	3	2
2	19	waterfalls5.jpg	waterfalls	B	15	no	1.000261	1	1.28742957115173	k	1	3	2
2	20	canyons35.jpg	canyons	A	14	no	0.999673	1	0.795686006546021	k	1	3	2
2	21	mountains19.jpg	mountains	B	14	no	0.999852	1	0.689443588256836	k	1	3	3.5
2	22	lighthouses7.jpg	lighthouses	X	15	yes	0.999934	1	0.597516536712647	j	1	3	2
2	23	beaches7.jpg	beaches	X	16	yes	1.000239	1	1.56854271888733	j	1	3	3.5
2	24	lighthouses30.jpg	lighthouses	X	16	yes	0.999972	1	0.597648859024048	j	1	3	2
2	25	marshes32.jpg	marshes	A	16	no	0.999956	1	0.896727800369263	k	1	3	2
2	26	waterfalls48.jpg	waterfalls	B	16	no	0.999938	1	0.866766691207886	k	1	3	5
2	27	bridges20.jpg	bridges	X	15	yes	1.0003	1	1.05480980873108	j	1	3	3.5
2	28	beaches42.jpg	beaches	X	17	yes	0.999968	0	0.885900974273682	k	1	3	2
2	29	lakes46.jpg	lakes	X	16	yes	0.999951	1	0.767026901245117	j	1	3	3.5
2	30	forests23.jpg	forests	X	15	no	1.000025	1	0.796022653579712	k	1	3	5
2	31	bridges35.jpg	bridges	X	16	yes	0.999935	1	0.612132549285889	j	1	3	3.5
2	32	canyons39.jpg	canyons	A	15	no	0.999908	1	0.68118953704834	k	1	3	2
2	33	mountains4.jpg	mountains	B	15	no	0.9997	1	0.643261909484863	k	1	3	5
2	34	marshes8.jpg	marshes	A	17	no	1.000009	1	0.79037070274353	k	1	3	3.5
2	35	waterfalls16.jpg	waterfalls	B	17	no	1.000036	1	0.63745641708374	k	1	3	5
2	36	lighthouses10.jpg	lighthouses	X	17	yes	0.999903	1	0.598526477813721	j	1	3	5
2	37	lakes2.jpg	lakes	X	17	yes	0.999714	1	0.742645263671875	j	1	3	3.5
2	38	forests1.jpg	forests	X	16	no	0.999641	1	0.844055652618408	k	1	3	2
2	39	beaches31.jpg	beaches	X	18	yes	1.000075	1	1.04108786582947	j	1	3	2
2	40	lighthouses12.jpg	lighthouses	X	18	yes	0.999686	1	0.872156143188477	j	1	3	2
2	41	canyons13.jpg	canyons	A	16	no	0.999758	1	0.584199905395508	k	1	3	2
2	42	mountains32.jpg	mountains	B	16	no	0.999814	1	0.783234596252441	k	1	3	2
2	43	bridges22.jpg	bridges	X	17	yes	0.999752	1	0.521272897720337	j	1	3	2
2	44	beaches18.jpg	beaches	X	19	yes	0.999767	1	0.584332942962647	j	1	3	3.5
2	45	fields43.jpg	fields	X	15	yes	0.999746	1	0.561449527740479	j	1	3	2
2	46	forests54.jpg	forests	X	17	no	0.999606	0	NaN	n	1	3	3.5
2	47	lighthouses52.jpg	lighthouses	X	19	yes	0.999691	1	0.55758810043335	j	1	3	2
2	48	marshes20.jpg	marshes	A	18	no	0.999822	1	0.954605102539063	k	1	3	5
2	49	waterfalls53.jpg	waterfalls	B	18	no	0.999753	1	0.747689723968506	k	1	3	2
2	50	lakes29.jpg	lakes	X	18	yes	1.000018	1	1.03477072715759	j	1	3	3.5
2	51	deserts1.jpg	deserts	A	18	no	0.999707	1	0.600840330123901	k	1	3	5
2	52	parks43.jpg	parks	B	18	yes	0.999732	1	0.644931793212891	j	1	3	3.5
2	53	fields50.jpg	fields	X	16	yes	0.99974	1	1.03201079368591	j	1	3	5
2	54	bridges21.jpg	bridges	X	18	yes	0.99978	1	0.618098974227905	j	1	3	3.5
2	55	forests56.jpg	forests	X	18	no	0.999778	1	0.928189754486084	k	1	3	3.5
2	56	bridges9.jpg	bridges	X	19	yes	0.99971	1	0.558287143707275	j	1	3	3.5
2	57	canyons41.jpg	canyons	A	17	no	0.999682	1	0.774348735809326	k	1	3	3.5
2	58	mountains15.jpg	mountains	B	17	no	0.999738	1	0.727401971817017	k	1	3	5
2	59	fields35.jpg	fields	X	17	yes	0.999692	1	0.771512985229492	j	1	3	3.5
2	60	marshes18.jpg	marshes	A	19	no	0.999702	1	0.742592096328735	k	1	3	3.5
2	61	waterfalls38.jpg	waterfalls	B	19	no	0.999792	1	0.595674753189087	k	1	3	3.5
2	62	deserts6.jpg	deserts	A	19	no	0.999662	1	0.926751852035523	k	1	3	3.5
2	63	parks4.jpg	parks	B	19	yes	0.999752	1	0.736821889877319	j	1	3	3.5
2	64	marshes23.jpg	marshes	A	20	no	0.999704	1	0.695924758911133	k	1	3	5
2	65	waterfalls29.jpg	waterfalls	B	20	no	0.999703	1	0.781015157699585	k	1	3	5
2	66	fields24.jpg	fields	X	18	yes	0.999781	1	0.701100826263428	j	1	3	3.5
2	67	lakes51.jpg	lakes	X	19	yes	0.999843	1	0.620145797729492	j	1	3	3.5
2	68	fields45.jpg	fields	X	19	yes	0.999861	0	NaN	n	1	3	3.5
2	69	canyons48.jpg	canyons	A	18	no	0.999734	1	0.858372449874878	k	1	3	5
2	70	mountains21.jpg	mountains	B	18	no	0.999669	1	0.610449075698853	k	1	3	5
2	71	fields42.jpg	fields	X	20	yes	0.999703	1	0.976531028747559	j	1	3	5
2	72	deserts37.jpg	deserts	A	20	no	0.999754	1	0.64063286781311	k	1	3	2
2	73	parks44.jpg	parks	B	20	yes	0.999697	1	0.556687831878662	j	1	3	3.5
2	74	lighthouses55.jpg	lighthouses	X	20	yes	0.999994	0	NaN	n	1	3	3.5
2	75	forests11.jpg	forests	X	19	no	0.999748	1	0.700814485549927	k	1	3	3.5
2	76	beaches15.jpg	beaches	X	20	yes	0.999949	1	1.35191082954407	j	1	3	2
2	77	canyons28.jpg	canyons	A	19	no	0.999675	1	0.698959112167358	k	1	3	2
2	78	mountains43.jpg	mountains	B	19	no	0.999736	1	0.735984802246094	k	1	3	3.5
2	79	forests19.jpg	forests	X	20	no	0.999746	1	0.517077445983887	k	1	3	2
2	80	lakes34.jpg	lakes	X	20	yes	0.999566	1	0.601160526275635	j	1	3	2
2	81	canyons54.jpg	canyons	A	20	no	0.999694	1	0.851212739944458	k	1	3	5
2	82	mountains3.jpg	mountains	B	20	no	0.999754	1	0.837300777435303	k	1	3	2
2	83	bridges50.jpg	bridges	X	20	yes	0.999705	1	0.699347257614136	j	1	3	2
2	0	deserts7.jpg	deserts	A	21	no	0.999785	1	0.956440925598145	k	1	4	2
2	1	parks17.jpg	parks	B	21	yes	0.999775	1	0.581424713134766	j	1	4	3.5
2	2	lighthouses54.jpg	lighthouses	X	21	yes	0.999911	1	0.586615562438965	j	1	4	2
2	3	bridges8.jpg	bridges	X	21	yes	0.999957	1	0.595644950866699	j	1	4	5
2	4	marshes7.jpg	marshes	A	21	no	1.000336	0	1.03472113609314	j	1	4	2
2	5	waterfalls21.jpg	waterfalls	B	21	no	0.999961	0	0.888778924942017	j	1	4	5
2	6	deserts55.jpg	deserts	A	22	no	1.000182	1	1.23088574409485	k	1	4	3.5
2	7	parks10.jpg	parks	B	22	yes	1.000027	1	0.561927080154419	j	1	4	5
2	8	bridges53.jpg	bridges	X	22	yes	0.999953	1	0.54207181930542	j	1	4	3.5
2	9	canyons36.jpg	canyons	A	21	no	0.999971	1	0.626141786575317	k	1	4	2
2	10	mountains28.jpg	mountains	B	21	no	0.999942	1	0.68118691444397	k	1	4	5
2	11	marshes38.jpg	marshes	A	22	no	0.999963	1	0.825275182723999	k	1	4	2
2	12	waterfalls33.jpg	waterfalls	B	22	no	0.999936	1	0.970349788665772	k	1	4	5
2	13	forests43.jpg	forests	X	21	no	1.000048	1	0.594424724578857	k	1	4	2
2	14	bridges44.jpg	bridges	X	23	yes	0.999905	1	0.765494823455811	j	1	4	3.5
2	15	fields6.jpg	fields	X	21	yes	0.999966	1	0.575568914413452	j	1	4	2
2	16	bridges3.jpg	bridges	X	24	yes	0.999971	1	0.550639867782593	j	1	4	3.5
2	17	lighthouses16.jpg	lighthouses	X	22	yes	0.999969	1	0.726669311523438	j	1	4	3.5
2	18	beaches9.jpg	beaches	X	21	yes	0.999953	1	0.645782947540283	j	1	4	3.5
2	19	deserts35.jpg	deserts	A	23	no	0.999983	1	1.17380595207214	k	1	4	5
2	20	parks24.jpg	parks	B	23	yes	1.00002	0	0.770922660827637	k	1	4	2
2	21	fields32.jpg	fields	X	22	yes	0.999961	1	0.8470299243927	j	1	4	2
2	22	lakes13.jpg	lakes	X	21	yes	0.999939	1	0.514080762863159	j	1	4	3.5
2	23	beaches26.jpg	beaches	X	22	yes	0.999965	1	0.574134111404419	j	1	4	3.5
2	24	lighthouses47.jpg	lighthouses	X	23	yes	1.000009	1	0.676166534423828	j	1	4	5
2	25	forests14.jpg	forests	X	22	no	0.999995	1	0.729308366775513	k	1	4	5
2	26	beaches45.jpg	beaches	X	23	yes	0.999997	1	1.08843684196472	j	1	4	3.5
2	27	marshes29.jpg	marshes	A	23	no	1.000057	1	0.826466798782349	k	1	4	2
2	28	waterfalls19.jpg	waterfalls	B	23	no	0.999709	1	0.671869039535523	k	1	4	3.5
2	29	canyons15.jpg	canyons	A	22	no	1.000038	1	0.730580568313599	k	1	4	3.5
2	30	mountains39.jpg	mountains	B	22	no	0.999911	1	0.680708646774292	k	1	4	2
2	31	marshes4.jpg	marshes	A	24	no	0.99969	1	0.74510383605957	k	1	4	5
2	32	waterfalls31.jpg	waterfalls	B	24	no	0.999952	1	0.78784990310669	k	1	4	2
2	33	beaches51.jpg	beaches	X	24	yes	0.999963	1	0.803890943527222	j	1	4	2
2	34	canyons9.jpg	canyons	A	23	no	0.999964	1	0.652949810028076	k	1	4	3.5
2	35	mountains17.jpg	mountains	B	23	no	0.999965	1	0.74904990196228	k	1	4	5
2	36	lakes17.jpg	lakes	X	22	yes	0.999963	1	0.622152805328369	j	1	4	2
2	37	deserts41.jpg	deserts	A	24	no	0.999816	1	1.02154111862183	k	1	4	2
2	38	parks51.jpg	parks	B	24	yes	0.999941	1	0.895219802856445	j	1	4	2
2	39	fields37.jpg	fields	X	23	yes	0.999944	1	0.945290565490723	j	1	4	2
2	40	canyons23.jpg	canyons	A	24	no	0.999952	1	0.864319801330566	k	1	4	3.5
2	41	mountains49.jpg	mountains	B	24	no	0.999918	1	0.844407320022583	k	1	4	5
2	42	lighthouses45.jpg	lighthouses	X	24	yes	0.99992	1	0.734503746032715	j	1	4	5
2	43	lakes38.jpg	lakes	X	23	yes	0.999914	1	0.967607498168945	j	1	4	5
2	44	bridges48.jpg	bridges	X	25	yes	0.999943	1	0.571706771850586	j	1	4	3.5
2	45	fields29.jpg	fields	X	24	yes	1.000123	0	1.30777072906494	k	1	4	2
2	46	lakes10.jpg	lakes	X	24	yes	1.000003	1	0.534818410873413	j	1	4	3.5
2	47	marshes40.jpg	marshes	A	25	no	1.000034	1	0.639926671981812	k	1	4	3.5
2	48	waterfalls46.jpg	waterfalls	B	25	no	0.999924	1	0.742005586624146	k	1	4	3.5
2	49	beaches17.jpg	beaches	X	25	yes	1.00004	1	1.03508019447327	j	1	4	2
2	50	bridges23.jpg	bridges	X	26	yes	0.999938	1	0.61718487739563	j	1	4	3.5
2	51	deserts46.jpg	deserts	A	25	no	0.999757	1	0.662225723266602	k	1	4	2
2	52	parks26.jpg	parks	B	25	yes	0.999715	1	0.656272172927856	j	1	4	2
2	53	forests47.jpg	forests	X	23	no	0.999398	1	0.892317533493042	k	1	4	3.5
2	54	fields34.jpg	fields	X	25	yes	0.999877	1	0.744365215301514	j	1	4	2
2	55	deserts16.jpg	deserts	A	26	no	0.999894	1	0.832433462142944	k	1	4	5
2	56	parks22.jpg	parks	B	26	yes	0.99992	1	0.727527618408203	j	1	4	2
2	57	lakes44.jpg	lakes	X	25	yes	0.999939	1	0.95656681060791	j	1	4	2
2	58	forests26.jpg	forests	X	24	no	0.999943	1	0.842611789703369	k	1	4	3.5
2	59	canyons20.jpg	canyons	A	25	no	0.999963	1	0.904742956161499	k	1	4	3.5
2	60	mountains42.jpg	mountains	B	25	no	1.000259	1	1.05177068710327	k	1	4	3.5
2	61	beaches38.jpg	beaches	X	26	yes	0.999922	0	NaN	n	1	4	3.5
2	62	fields56.jpg	fields	X	26	yes	0.999696	1	0.420260906219482	j	1	4	2
2	63	forests28.jpg	forests	X	25	no	0.999783	1	0.696341991424561	k	1	4	3.5
2	64	canyons14.jpg	canyons	A	26	no	0.999935	1	0.683016777038574	k	1	4	2
2	65	mountains52.jpg	mountains	B	26	no	0.999922	1	0.84106969833374	k	1	4	2
2	66	lakes18.jpg	lakes	X	26	yes	0.999938	1	0.731155633926392	j	1	4	3.5
2	67	lighthouses15.jpg	lighthouses	X	25	yes	0.999903	1	0.691250324249268	j	1	4	3.5
2	68	marshes49.jpg	marshes	A	26	no	0.999895	1	0.640260219573975	k	1	4	2
2	69	waterfalls28.jpg	waterfalls	B	26	no	0.999921	1	0.94138765335083	k	1	4	5
2	70	forests50.jpg	forests	X	26	no	0.999953	1	0.902478694915772	k	1	4	3.5
2	71	lighthouses35.jpg	lighthouses	X	26	yes	0.999945	1	1.15453577041626	j	1	4	2
2	72	deserts43.jpg	deserts	A	27	no	0.999887	1	0.554596424102783	k	1	4	3.5
2	73	parks47.jpg	parks	B	27	yes	0.999949	1	0.622647762298584	j	1	4	2
2	74	lighthouses25.jpg	lighthouses	X	27	yes	0.999667	1	0.865056991577148	j	1	4	2
2	75	bridges34.jpg	bridges	X	27	yes	0.999953	1	0.844770669937134	j	1	4	5
2	76	beaches1.jpg	beaches	X	27	yes	0.999698	1	0.758175849914551	j	1	4	5
2	77	canyons24.jpg	canyons	A	27	no	1.000065	0	NaN	n	1	4	3.5
2	78	mountains22.jpg	mountains	B	27	no	0.999943	1	1.33137369155884	k	1	4	2
2	79	marshes53.jpg	marshes	A	27	no	1.000031	1	0.721056699752808	k	1	4	3.5
2	80	waterfalls9.jpg	waterfalls	B	27	no	0.999873	1	0.699101448059082	k	1	4	3.5
2	81	fields16.jpg	fields	X	27	yes	0.999959	1	0.663198709487915	j	1	4	3.5
2	82	lakes21.jpg	lakes	X	27	yes	1.000261	0	NaN	n	1	4	2
2	83	forests41.jpg	forests	X	27	no	0.999705	1	0.709684371948242	k	1	4	5
2	0	forests8.jpg	forests	X	28	no	1.000151	1	1.14071440696716	k	1	5	3.5
2	1	canyons31.jpg	canyons	A	28	no	0.999834	1	0.687041044235229	k	1	5	2
2	2	parks52.jpg	parks	B	28	yes	0.999749	1	0.632161617279053	j	1	5	5
2	3	mountains9.jpg	mountains	B	28	no	0.999692	1	0.53725790977478	k	1	5	3.5
2	4	forests31.jpg	forests	X	29	no	0.999782	1	0.551331996917725	k	1	5	3.5
2	5	marshes47.jpg	marshes	A	28	no	0.999684	1	0.558362007141113	k	1	5	3.5
2	6	fields39.jpg	fields	X	28	yes	0.999688	1	0.896512031555176	j	1	5	2
2	7	canyons53.jpg	canyons	A	29	no	0.999687	1	0.66457200050354	k	1	5	3.5
2	8	lakes15.jpg	lakes	X	28	yes	0.999825	1	0.629615068435669	j	1	5	3.5
2	9	waterfalls2.jpg	waterfalls	B	28	no	0.999623	1	0.683704137802124	k	1	5	2
2	10	mountains2.jpg	mountains	B	29	no	0.999136	1	0.966745615005493	k	1	5	3.5
2	11	canyons37.jpg	canyons	A	30	no	0.999784	1	0.591800212860107	k	1	5	3.5
2	12	bridges29.jpg	bridges	X	28	yes	0.999809	1	0.879898548126221	j	1	5	5
2	13	mountains25.jpg	mountains	B	30	no	0.999489	1	0.897006511688232	k	1	5	3.5
2	14	lakes6.jpg	lakes	X	29	yes	1.000277	0	NaN	n	1	5	2
2	15	deserts31.jpg	deserts	A	28	no	0.999826	1	0.755124568939209	k	1	5	2
2	16	lighthouses8.jpg	lighthouses	X	28	yes	0.9998	1	0.599168300628662	j	1	5	2
2	17	parks34.jpg	parks	B	29	yes	0.999338	1	0.870234966278076	j	1	5	2
2	18	lighthouses31.jpg	lighthouses	X	29	yes	0.999645	1	0.764287710189819	j	1	5	2
2	19	deserts39.jpg	deserts	A	29	no	0.999733	1	0.561325550079346	k	1	5	3.5
2	20	bridges51.jpg	bridges	X	29	yes	0.99985	1	1.33349084854126	j	1	5	3.5
2	21	waterfalls25.jpg	waterfalls	B	29	no	0.999458	1	0.884509086608887	k	1	5	2
2	22	parks54.jpg	parks	B	30	yes	0.999839	0	NaN	n	1	5	5
2	23	lighthouses38.jpg	lighthouses	X	30	yes	0.998655	1	0.578634738922119	j	1	5	3.5
2	24	waterfalls54.jpg	waterfalls	B	30	no	0.998664	1	0.838714122772217	k	1	5	3.5
2	25	lakes33.jpg	lakes	X	30	yes	0.999665	0	NaN	n	1	5	2
2	26	beaches44.jpg	beaches	X	28	yes	0.999445	1	0.752798557281494	j	1	5	2
2	27	canyons29.jpg	canyons	A	31	no	0.999393	1	0.58489465713501	k	1	5	5
2	28	lakes9.jpg	lakes	X	31	yes	0.998482	1	0.772973299026489	j	1	5	3.5
2	29	fields26.jpg	fields	X	29	yes	0.999062	1	0.670048713684082	j	1	5	3.5
2	30	mountains8.jpg	mountains	B	31	no	0.999071	1	0.575159788131714	k	1	5	2
2	31	deserts50.jpg	deserts	A	30	no	0.998778	1	0.92020058631897	k	1	5	2
2	32	beaches34.jpg	beaches	X	29	yes	0.998923	1	0.774255275726318	j	1	5	3.5
2	33	waterfalls3.jpg	waterfalls	B	31	no	0.999062	1	0.864294767379761	k	1	5	3.5
2	34	lighthouses24.jpg	lighthouses	X	31	yes	0.99854	1	0.519409418106079	j	1	5	2
2	35	bridges36.jpg	bridges	X	30	yes	0.998524	1	0.768453598022461	j	1	5	2
2	36	lakes14.jpg	lakes	X	32	yes	0.998701	1	0.538484573364258	j	1	5	3.5
2	37	parks20.jpg	parks	B	31	yes	0.9988	1	0.726611614227295	j	1	5	3.5
2	38	deserts26.jpg	deserts	A	31	no	0.998326	1	0.627671003341675	k	1	5	2
2	39	mountains48.jpg	mountains	B	32	no	0.998337	1	0.78068995475769	k	1	5	5
2	40	deserts32.jpg	deserts	A	32	no	0.999949	1	0.68482780456543	k	1	5	5
2	41	marshes26.jpg	marshes	A	29	no	0.998262	1	0.687929630279541	k	1	5	5
2	42	waterfalls10.jpg	waterfalls	B	32	no	0.99994	1	0.644990682601929	k	1	5	5
2	43	fields44.jpg	fields	X	30	yes	0.999707	0	0.654122352600098	k	1	5	2
2	44	beaches11.jpg	beaches	X	30	yes	0.999943	1	0.512158870697021	j	1	5	3.5
2	45	fields8.jpg	fields	X	31	yes	0.999933	1	0.547244071960449	j	1	5	3.5
2	46	marshes46.jpg	marshes	A	30	no	0.999796	1	0.592295169830322	k	1	5	2
2	47	canyons43.jpg	canyons	A	32	no	0.999806	1	0.703315496444702	k	1	5	5
2	48	forests49.jpg	forests	X	30	no	0.998712	1	0.781468152999878	k	1	5	3.5
2	49	marshes48.jpg	marshes	A	31	no	0.999933	1	0.661552906036377	k	1	5	2
2	50	lighthouses19.jpg	lighthouses	X	32	yes	0.999958	1	0.767638921737671	j	1	5	5
2	51	bridges11.jpg	bridges	X	31	yes	1.000027	0	NaN	n	1	5	3.5
2	52	parks45.jpg	parks	B	32	yes	1.000028	1	0.967729568481445	j	1	5	5
2	53	deserts49.jpg	deserts	A	33	no	0.999932	1	0.606884717941284	k	1	5	2
2	54	marshes12.jpg	marshes	A	32	no	0.999973	1	0.794930934906006	k	1	5	3.5
2	55	lakes48.jpg	lakes	X	33	yes	0.999959	1	0.727008581161499	j	1	5	5
2	56	beaches48.jpg	beaches	X	31	yes	0.999933	1	0.593106746673584	j	1	5	2
2	57	lakes25.jpg	lakes	X	34	yes	0.999962	1	0.950183868408203	j	1	5	3.5
2	58	forests36.jpg	forests	X	31	no	0.999953	1	0.757266044616699	k	1	5	5
2	59	waterfalls37.jpg	waterfalls	B	33	no	0.999918	1	0.769351720809937	k	1	5	2
2	60	marshes37.jpg	marshes	A	33	no	0.999966	1	0.779414892196655	k	1	5	2
2	61	bridges7.jpg	bridges	X	32	yes	0.99995	1	0.820443868637085	j	1	5	2
2	62	beaches50.jpg	beaches	X	32	yes	0.99995	1	0.538493871688843	j	1	5	3.5
2	63	fields15.jpg	fields	X	32	yes	0.999963	1	0.7375648021698	j	1	5	2
2	64	mountains34.jpg	mountains	B	33	no	0.999964	0	NaN	n	1	5	2
2	65	waterfalls32.jpg	waterfalls	B	34	no	1.00003	1	1.0326726436615	k	1	5	2
2	66	mountains45.jpg	mountains	B	34	no	0.999989	1	0.533758163452148	k	1	5	5
2	67	fields14.jpg	fields	X	33	yes	0.999958	1	0.543834924697876	j	1	5	3.5
2	68	canyons5.jpg	canyons	A	33	no	1.00006	1	0.64690089225769	k	1	5	3.5
2	69	bridges17.jpg	bridges	X	33	yes	0.999954	1	0.74198579788208	j	1	5	5
2	70	lighthouses4.jpg	lighthouses	X	33	yes	1.000258	1	1.27409100532532	j	1	5	3.5
2	71	marshes44.jpg	marshes	A	34	no	1.000112	1	1.209148645401	k	1	5	2
2	72	beaches23.jpg	beaches	X	33	yes	1.000055	1	0.778181791305542	j	1	5	2
2	73	parks23.jpg	parks	B	33	yes	0.999996	1	0.977239370346069	j	1	5	3.5
2	74	forests13.jpg	forests	X	32	no	0.999984	1	0.750367403030396	k	1	5	2
2	75	parks27.jpg	parks	B	34	yes	0.999859	1	0.777364015579224	j	1	5	2
2	76	canyons18.jpg	canyons	A	34	no	0.999925	1	0.876439571380615	k	1	5	2
2	77	forests4.jpg	forests	X	33	no	0.999987	1	0.615461349487305	k	1	5	3.5
2	78	deserts48.jpg	deserts	A	34	no	0.999852	1	0.608564853668213	k	1	5	3.5
2	79	lighthouses34.jpg	lighthouses	X	34	yes	1.000001	1	0.619648218154907	j	1	5	3.5
2	80	fields25.jpg	fields	X	34	yes	0.999957	1	0.623722076416016	j	1	5	2
2	81	forests24.jpg	forests	X	34	no	0.999951	1	0.754767656326294	k	1	5	5
2	82	bridges10.jpg	bridges	X	34	yes	0.999975	1	0.643863439559937	j	1	5	5
2	83	beaches3.jpg	beaches	X	34	yes	0.999985	0	0.76996922492981	k	1	5	5
3	0	waterfalls2.jpg	waterfalls	X	0	no	1.000295	1	1.88492774963379	k	0	1	5
3	1	forests30.jpg	forests	A	0	no	1.000018	1	0.774573564529419	k	0	1	2
3	2	lakes27.jpg	lakes	X	0	yes	0.999905	1	0.940037727355957	j	0	1	3.5
3	3	lighthouses26.jpg	lighthouses	X	0	yes	0.999919	1	0.744148015975952	j	0	1	2
3	4	canyons49.jpg	canyons	X	0	no	1.000052	1	0.810234546661377	k	0	1	3.5
3	5	deserts50.jpg	deserts	X	0	no	0.99978	1	0.718274593353271	k	0	1	2
3	6	beaches16.jpg	beaches	B	0	yes	1.000385	1	1.22210764884949	j	0	1	2
3	7	fields35.jpg	fields	B	0	yes	1.000035	1	0.689006805419922	j	0	1	3.5
3	8	beaches30.jpg	beaches	B	1	yes	0.999991	1	0.636075735092163	j	0	1	2
3	9	lakes14.jpg	lakes	X	1	yes	1.000016	1	0.714169502258301	j	0	1	2
3	10	fields40.jpg	fields	B	1	yes	0.999961	1	0.64921236038208	j	0	1	2
3	11	marshes25.jpg	marshes	X	0	no	1.000009	1	0.89525580406189	k	0	1	3.5
3	12	deserts6.jpg	deserts	X	1	no	0.999911	1	0.640331983566284	k	0	1	3.5
3	13	mountains52.jpg	mountains	B	0	no	0.99985	1	0.871395587921143	k	0	1	2
3	14	lakes5.jpg	lakes	X	2	yes	0.999862	1	0.7034592628479	j	0	1	2
3	15	waterfalls22.jpg	waterfalls	X	1	no	1.000307	1	1.22150158882141	k	0	1	5
3	16	marshes45.jpg	marshes	X	1	no	1.000001	1	0.854646682739258	k	0	1	2
3	17	lakes6.jpg	lakes	X	3	yes	1.000023	1	0.649627923965454	j	0	1	3.5
3	18	parks25.jpg	parks	A	0	yes	1.000019	1	0.69172739982605	j	0	1	3.5
3	19	canyons22.jpg	canyons	X	1	no	0.999977	1	0.828163862228394	k	0	1	5
3	20	parks26.jpg	parks	A	1	yes	0.999977	1	0.756894588470459	j	0	1	3.5
3	21	mountains51.jpg	mountains	B	1	no	1.000033	1	0.701281785964966	k	0	1	2
3	22	bridges47.jpg	bridges	A	0	yes	1.000004	0	1.09140467643738	k	0	1	3.5
3	23	forests26.jpg	forests	A	1	no	0.999978	1	0.987438917160034	k	0	1	2
3	24	canyons1.jpg	canyons	X	2	no	1.000008	1	0.872160911560059	k	0	1	3.5
3	25	beaches14.jpg	beaches	B	2	yes	0.999951	1	0.847215414047241	j	0	1	2
3	26	mountains45.jpg	mountains	B	2	no	0.999867	1	0.758626699447632	k	0	1	3.5
3	27	lighthouses15.jpg	lighthouses	X	1	yes	1.000075	1	0.987686634063721	j	0	1	5
3	28	marshes34.jpg	marshes	X	2	no	0.999932	1	0.835766315460205	k	0	1	5
3	29	parks52.jpg	parks	A	2	yes	0.999905	1	0.83587908744812	j	0	1	3.5
3	30	deserts16.jpg	deserts	X	2	no	1.000242	1	1.13210368156433	k	0	1	3.5
3	31	mountains11.jpg	mountains	B	3	no	0.999977	1	0.824057102203369	k	0	1	5
3	32	parks11.jpg	parks	A	3	yes	0.99989	1	0.913151741027832	j	0	1	5
3	33	bridges10.jpg	bridges	A	1	yes	0.999922	1	0.691287040710449	j	0	1	5
3	34	parks1.jpg	parks	A	4	yes	0.999931	1	1.1513786315918	j	0	1	2
3	35	beaches51.jpg	beaches	B	3	yes	0.999898	1	0.757433891296387	j	0	1	5
3	36	forests31.jpg	forests	A	2	no	0.999963	1	0.882535934448242	k	0	1	5
3	37	beaches55.jpg	beaches	B	4	yes	0.999867	1	0.702320575714111	j	0	1	3.5
3	38	lighthouses4.jpg	lighthouses	X	2	yes	0.999905	1	0.67769193649292	j	0	1	3.5
3	39	fields17.jpg	fields	B	2	yes	1.000062	1	0.583111524581909	j	0	1	5
3	40	waterfalls48.jpg	waterfalls	X	2	no	0.999903	1	0.766846656799316	k	0	1	3.5
3	41	deserts26.jpg	deserts	X	3	no	0.999843	1	0.880900382995605	k	0	1	3.5
3	42	marshes26.jpg	marshes	X	3	no	0.999834	1	0.67698860168457	k	0	1	2
3	43	bridges38.jpg	bridges	A	2	yes	1.000324	1	1.00022077560425	j	0	1	3.5
3	44	fields20.jpg	fields	B	3	yes	0.999856	1	0.705087900161743	j	0	1	3.5
3	45	canyons38.jpg	canyons	X	3	no	0.999951	1	0.853194713592529	k	0	1	3.5
3	46	mountains56.jpg	mountains	B	4	no	0.999898	1	0.769315719604492	k	0	1	2
3	47	deserts41.jpg	deserts	X	4	no	1.000012	1	0.755292654037476	k	0	1	2
3	48	marshes50.jpg	marshes	X	4	no	1.000027	1	1.15435862541199	k	0	1	2
3	49	fields38.jpg	fields	B	4	yes	0.999861	1	0.927392244338989	j	0	1	2
3	50	parks15.jpg	parks	A	5	yes	0.999893	1	0.888492584228516	j	0	1	2
3	51	marshes6.jpg	marshes	X	5	no	0.999884	1	0.673546552658081	k	0	1	2
3	52	bridges22.jpg	bridges	A	3	yes	1.000224	0	1.20554399490356	k	0	1	3.5
3	53	waterfalls11.jpg	waterfalls	X	3	no	0.999892	1	0.834657669067383	k	0	1	2
3	54	canyons3.jpg	canyons	X	4	no	0.999926	1	0.793690919876099	k	0	1	2
3	55	bridges17.jpg	bridges	A	4	yes	0.999887	1	0.695730686187744	j	0	1	5
3	56	deserts33.jpg	deserts	X	5	no	1.000175	1	1.89083194732666	k	0	1	2
3	57	marshes1.jpg	marshes	X	6	no	0.999923	1	0.723919868469238	k	0	1	3.5
3	58	beaches50.jpg	beaches	B	5	yes	0.99988	1	0.709064722061157	j	0	1	3.5
3	59	canyons12.jpg	canyons	X	5	no	0.999904	1	0.856070756912231	k	0	1	5
3	60	parks9.jpg	parks	A	6	yes	0.999905	1	0.930142641067505	j	0	1	5
3	61	forests9.jpg	forests	A	3	no	0.999878	1	0.806188821792603	k	0	1	2
3	62	lighthouses47.jpg	lighthouses	X	3	yes	0.999919	1	0.791293144226074	j	0	1	5
3	63	fields6.jpg	fields	B	5	yes	1.000113	1	1.44244599342346	j	0	1	3.5
3	64	lakes40.jpg	lakes	X	4	yes	0.999944	1	0.766477823257446	j	0	1	2
3	65	deserts46.jpg	deserts	X	6	no	0.999869	1	0.71051287651062	k	0	1	5
3	66	forests46.jpg	forests	A	4	no	0.999983	1	0.713593244552612	k	0	1	3.5
3	67	lighthouses48.jpg	lighthouses	X	4	yes	0.999897	1	0.752672672271729	j	0	1	5
3	68	beaches20.jpg	beaches	B	6	yes	1.000006	1	0.704766988754272	j	0	1	3.5
3	69	lakes24.jpg	lakes	X	5	yes	0.999893	1	0.929849624633789	j	0	1	5
3	70	waterfalls37.jpg	waterfalls	X	4	no	0.999898	1	0.794929027557373	k	0	1	3.5
3	71	forests1.jpg	forests	A	5	no	0.9999	1	0.895040035247803	k	0	1	2
3	72	mountains41.jpg	mountains	B	5	no	0.999909	1	0.962080955505371	k	0	1	2
3	73	forests12.jpg	forests	A	6	no	0.99988	1	0.762144804000854	k	0	1	2
3	74	fields19.jpg	fields	B	6	yes	0.999976	1	0.809198379516602	j	0	1	3.5
3	75	bridges24.jpg	bridges	A	5	yes	0.999872	1	0.837274551391602	j	0	1	3.5
3	76	canyons48.jpg	canyons	X	6	no	0.999913	1	0.670325040817261	k	0	1	3.5
3	77	lighthouses39.jpg	lighthouses	X	5	yes	0.999976	1	0.971431732177734	j	0	1	2
3	78	mountains55.jpg	mountains	B	6	no	0.999907	1	0.916444063186646	k	0	1	2
3	79	lighthouses35.jpg	lighthouses	X	6	yes	0.9999	1	0.817524909973145	j	0	1	2
3	80	bridges43.jpg	bridges	A	6	yes	0.999893	1	0.90356707572937	j	0	1	3.5
3	81	waterfalls29.jpg	waterfalls	X	5	no	0.999891	1	0.740651845932007	k	0	1	3.5
3	82	lakes17.jpg	lakes	X	6	yes	0.999888	1	0.764704704284668	j	0	1	2
3	83	waterfalls43.jpg	waterfalls	X	6	no	1.000245	1	1.03177285194397	k	0	1	3.5
3	0	bridges8.jpg	bridges	A	7	yes	0.99997	1	1.75817847251892	j	0	2	5
3	1	fields31.jpg	fields	B	7	yes	0.99997	1	0.597864627838135	j	0	2	3.5
3	2	waterfalls35.jpg	waterfalls	X	7	no	0.999934	1	0.642058610916138	k	0	2	5
3	3	forests18.jpg	forests	A	7	no	0.999977	1	0.911126613616943	k	0	2	2
3	4	beaches45.jpg	beaches	B	7	yes	0.999984	1	0.851205587387085	j	0	2	2
3	5	bridges1.jpg	bridges	A	8	yes	0.999891	1	0.632581233978271	j	0	2	2
3	6	fields24.jpg	fields	B	8	yes	1.000004	1	0.826303720474243	j	0	2	3.5
3	7	parks30.jpg	parks	A	7	yes	0.999978	1	0.924376487731934	j	0	2	3.5
3	8	mountains27.jpg	mountains	B	7	no	0.999991	1	0.705435514450073	k	0	2	2
3	9	canyons9.jpg	canyons	X	7	no	1.000007	1	0.686487674713135	k	0	2	2
3	10	forests41.jpg	forests	A	8	no	0.999969	1	0.821526527404785	k	0	2	3.5
3	11	beaches40.jpg	beaches	B	8	yes	0.999998	1	0.876600742340088	j	0	2	5
3	12	parks50.jpg	parks	A	8	yes	0.999999	1	0.670700550079346	j	0	2	2
3	13	mountains23.jpg	mountains	B	8	no	1.000012	1	0.677741765975952	k	0	2	2
3	14	lakes48.jpg	lakes	X	7	yes	0.999954	1	0.673781394958496	j	0	2	2
3	15	waterfalls1.jpg	waterfalls	X	8	no	0.999997	1	0.800861597061157	k	0	2	2
3	16	parks22.jpg	parks	A	9	yes	1.00001	1	0.995218992233276	j	0	2	2
3	17	mountains3.jpg	mountains	B	9	no	1.000081	1	1.06495523452759	k	0	2	3.5
3	18	bridges7.jpg	bridges	A	9	yes	0.99988	1	0.608368635177612	j	0	2	3.5
3	19	fields51.jpg	fields	B	9	yes	0.999939	1	0.78642463684082	j	0	2	3.5
3	20	lakes15.jpg	lakes	X	8	yes	0.999995	1	0.549136161804199	j	0	2	3.5
3	21	bridges9.jpg	bridges	A	10	yes	0.999983	1	0.569208145141602	j	0	2	3.5
3	22	fields43.jpg	fields	B	10	yes	0.999996	1	0.698399543762207	j	0	2	2
3	23	canyons44.jpg	canyons	X	8	no	0.999984	1	0.720429658889771	k	0	2	2
3	24	lighthouses36.jpg	lighthouses	X	7	yes	1.000313	1	1.82851982116699	j	0	2	3.5
3	25	bridges49.jpg	bridges	A	11	yes	1.000001	1	0.802565813064575	j	0	2	2
3	26	fields39.jpg	fields	B	11	yes	0.999888	1	0.587924957275391	j	0	2	5
3	27	forests55.jpg	forests	A	9	no	0.999819	1	0.73602819442749	k	0	2	2
3	28	beaches43.jpg	beaches	B	9	yes	0.999973	1	0.776115655899048	j	0	2	2
3	29	bridges12.jpg	bridges	A	12	yes	0.99993	1	0.562150716781616	j	0	2	5
3	30	fields11.jpg	fields	B	12	yes	0.999877	1	0.590188264846802	j	0	2	5
3	31	lakes11.jpg	lakes	X	9	yes	0.999931	1	0.539289712905884	j	0	2	2
3	32	forests35.jpg	forests	A	10	no	0.999837	1	0.890384674072266	k	0	2	3.5
3	33	beaches15.jpg	beaches	B	10	yes	0.999944	1	0.750430345535278	j	0	2	5
3	34	marshes10.jpg	marshes	X	7	no	0.999875	1	0.813491821289062	k	0	2	5
3	35	waterfalls50.jpg	waterfalls	X	9	no	1.000102	1	1.10064697265625	k	0	2	2
3	36	lighthouses31.jpg	lighthouses	X	8	yes	0.999935	1	0.635677814483643	j	0	2	3.5
3	37	marshes8.jpg	marshes	X	8	no	0.999838	1	0.661741733551025	k	0	2	2
3	38	waterfalls26.jpg	waterfalls	X	10	no	0.999873	1	0.737835884094238	k	0	2	2
3	39	deserts53.jpg	deserts	X	7	no	0.999887	1	0.804884672164917	k	0	2	3.5
3	40	forests51.jpg	forests	A	11	no	0.999914	1	0.601953029632568	k	0	2	5
3	41	beaches49.jpg	beaches	B	11	yes	0.999989	1	1.00204086303711	j	0	2	3.5
3	42	bridges33.jpg	bridges	A	13	yes	0.999967	1	1.64503455162048	j	0	2	5
3	43	fields28.jpg	fields	B	13	yes	0.999882	1	0.684236764907837	j	0	2	3.5
3	44	deserts24.jpg	deserts	X	8	no	0.999904	1	0.724292039871216	k	0	2	5
3	45	marshes38.jpg	marshes	X	9	no	0.999938	1	0.772380828857422	k	0	2	2
3	46	lighthouses6.jpg	lighthouses	X	9	yes	0.999978	1	0.633453845977783	j	0	2	2
3	47	canyons33.jpg	canyons	X	9	no	0.999891	1	0.735483407974243	k	0	2	3.5
3	48	parks14.jpg	parks	A	10	yes	0.999846	1	0.830557823181152	j	0	2	3.5
3	49	mountains22.jpg	mountains	B	10	no	0.999877	1	0.904611825942993	k	0	2	3.5
3	50	marshes31.jpg	marshes	X	10	no	0.999901	1	0.708687782287598	k	0	2	5
3	51	lakes4.jpg	lakes	X	10	yes	0.999826	1	0.808809757232666	j	0	2	2
3	52	lighthouses34.jpg	lighthouses	X	10	yes	0.999933	1	0.772848129272461	j	0	2	5
3	53	waterfalls39.jpg	waterfalls	X	11	no	0.999894	1	0.818921327590942	k	0	2	2
3	54	marshes22.jpg	marshes	X	11	no	0.999906	1	0.658002853393555	k	0	2	2
3	55	deserts49.jpg	deserts	X	9	no	0.999893	1	0.786062955856323	k	0	2	2
3	56	waterfalls28.jpg	waterfalls	X	12	no	0.999923	1	0.615097999572754	k	0	2	2
3	57	parks44.jpg	parks	A	11	yes	0.9999	1	0.707162857055664	j	0	2	2
3	58	mountains25.jpg	mountains	B	11	no	0.999893	1	0.691212892532349	k	0	2	2
3	59	lakes8.jpg	lakes	X	11	yes	0.999885	1	0.647258758544922	j	0	2	3.5
3	60	canyons29.jpg	canyons	X	10	no	0.999963	1	0.60431957244873	k	0	2	3.5
3	61	marshes44.jpg	marshes	X	12	no	0.99988	1	0.592406988143921	k	0	2	3.5
3	62	deserts48.jpg	deserts	X	10	no	0.999899	1	0.590516090393066	k	0	2	5
3	63	canyons15.jpg	canyons	X	11	no	0.999909	1	0.826555728912354	k	0	2	3.5
3	64	deserts43.jpg	deserts	X	11	no	0.999907	1	0.59663200378418	k	0	2	2
3	65	waterfalls21.jpg	waterfalls	X	13	no	1.000042	1	0.803663730621338	k	0	2	3.5
3	66	canyons26.jpg	canyons	X	12	no	0.999833	1	0.587772607803345	k	0	2	3.5
3	67	parks51.jpg	parks	A	12	yes	0.999838	1	0.851838350296021	j	0	2	3.5
3	68	mountains10.jpg	mountains	B	12	no	0.999852	1	0.681928634643555	k	0	2	3.5
3	69	lighthouses29.jpg	lighthouses	X	11	yes	0.999886	1	0.633012771606445	j	0	2	5
3	70	parks43.jpg	parks	A	13	yes	0.9998	1	0.808107376098633	j	0	2	2
3	71	mountains44.jpg	mountains	B	13	no	0.999911	1	0.74915599822998	k	0	2	3.5
3	72	marshes32.jpg	marshes	X	13	no	0.999894	1	0.963232755661011	k	0	2	5
3	73	lighthouses20.jpg	lighthouses	X	12	yes	0.999923	1	0.747367858886719	j	0	2	2
3	74	forests17.jpg	forests	A	12	no	0.999888	1	0.754387855529785	k	0	2	2
3	75	beaches9.jpg	beaches	B	12	yes	0.999886	1	0.747462034225464	j	0	2	3.5
3	76	lakes10.jpg	lakes	X	12	yes	0.999893	1	0.708518981933594	j	0	2	2
3	77	forests48.jpg	forests	A	13	no	0.999922	1	0.850600957870483	k	0	2	3.5
3	78	beaches23.jpg	beaches	B	13	yes	0.999923	1	0.673626184463501	j	0	2	5
3	79	lighthouses27.jpg	lighthouses	X	13	yes	0.999907	1	0.596776723861694	j	0	2	3.5
3	80	canyons4.jpg	canyons	X	13	no	0.99991	1	0.884810209274292	k	0	2	3.5
3	81	deserts7.jpg	deserts	X	12	no	0.999808	1	0.915922164916992	k	0	2	3.5
3	82	lakes44.jpg	lakes	X	13	yes	1.000181	0	1.6239550113678	k	0	2	3.5
3	83	deserts40.jpg	deserts	X	13	no	0.999827	1	0.64509916305542	k	0	2	5
3	0	bridges4.jpg	bridges	A	14	yes	0.999954	1	1.59202027320862	j	0	3	2
3	1	fields18.jpg	fields	B	14	yes	0.999892	1	0.867733716964722	j	0	3	2
3	2	canyons28.jpg	canyons	X	14	no	0.999889	1	0.855783700942993	k	0	3	3.5
3	3	deserts2.jpg	deserts	X	14	no	0.999841	1	0.661817789077759	k	0	3	2
3	4	lighthouses51.jpg	lighthouses	X	14	yes	0.999929	1	0.746888399124146	j	0	3	5
3	5	parks42.jpg	parks	A	14	yes	0.999968	1	0.686980247497559	j	0	3	5
3	6	mountains46.jpg	mountains	B	14	no	0.999837	1	0.647115707397461	k	0	3	3.5
3	7	lakes36.jpg	lakes	X	14	yes	0.99991	1	0.648149728775024	j	0	3	5
3	8	deserts18.jpg	deserts	X	15	no	0.999938	1	0.722226858139038	k	0	3	2
3	9	lighthouses46.jpg	lighthouses	X	15	yes	0.999901	1	0.699265480041504	j	0	3	3.5
3	10	forests22.jpg	forests	A	14	no	0.999936	1	0.703361749649048	k	0	3	3.5
3	11	beaches27.jpg	beaches	B	14	yes	1.000193	0	1.26449370384216	k	0	3	3.5
3	12	lighthouses28.jpg	lighthouses	X	16	yes	0.999944	1	0.717470645904541	j	0	3	2
3	13	lakes42.jpg	lakes	X	15	yes	0.999904	1	0.659523725509644	j	0	3	5
3	14	marshes46.jpg	marshes	X	14	no	0.999942	1	0.615647554397583	k	0	3	2
3	15	deserts34.jpg	deserts	X	16	no	0.999924	0	0.751771926879883	j	0	3	2
3	16	lakes21.jpg	lakes	X	16	yes	0.999921	0	0.939782857894897	k	0	3	2
3	17	forests40.jpg	forests	A	15	no	0.999888	1	0.839824914932251	k	0	3	3.5
3	18	beaches2.jpg	beaches	B	15	yes	0.999905	1	0.70586085319519	j	0	3	2
3	19	parks6.jpg	parks	A	15	yes	0.999904	1	0.786959886550903	j	0	3	2
3	20	mountains26.jpg	mountains	B	15	no	0.999943	1	0.780953884124756	k	0	3	2
3	21	marshes18.jpg	marshes	X	15	no	0.999924	1	1.01911664009094	k	0	3	2
3	22	waterfalls6.jpg	waterfalls	X	14	no	0.999939	1	0.795113801956177	k	0	3	3.5
3	23	bridges32.jpg	bridges	A	15	yes	0.999979	1	0.754221200942993	j	0	3	2
3	24	fields2.jpg	fields	B	15	yes	0.999813	1	0.792274713516235	j	0	3	5
3	25	waterfalls16.jpg	waterfalls	X	15	no	0.999928	1	0.774322986602783	k	0	3	3.5
3	26	lakes2.jpg	lakes	X	17	yes	0.999905	1	0.701413869857788	j	0	3	2
3	27	parks12.jpg	parks	A	16	yes	0.999896	1	0.578505039215088	j	0	3	2
3	28	mountains16.jpg	mountains	B	16	no	0.999912	1	0.718536138534546	k	0	3	2
3	29	marshes14.jpg	marshes	X	16	no	0.999882	1	0.718497753143311	k	0	3	5
3	30	deserts5.jpg	deserts	X	17	no	0.999967	1	0.732689142227173	k	0	3	5
3	31	waterfalls5.jpg	waterfalls	X	16	no	0.999843	1	0.739762783050537	k	0	3	3.5
3	32	forests3.jpg	forests	A	16	no	0.999902	1	0.628829717636108	k	0	3	3.5
3	33	beaches37.jpg	beaches	B	16	yes	1.000048	1	1.01192712783813	j	0	3	3.5
3	34	lighthouses45.jpg	lighthouses	X	17	yes	0.999916	1	0.60495400428772	j	0	3	3.5
3	35	bridges40.jpg	bridges	A	16	yes	0.999926	1	0.681030988693237	j	0	3	3.5
3	36	fields54.jpg	fields	B	16	yes	0.999915	1	0.539134979248047	j	0	3	3.5
3	37	canyons25.jpg	canyons	X	15	no	0.99993	1	0.606178045272827	k	0	3	5
3	38	forests37.jpg	forests	A	17	no	0.999851	1	0.717347621917725	k	0	3	5
3	39	beaches13.jpg	beaches	B	17	yes	0.99995	1	0.740372896194458	j	0	3	2
3	40	marshes4.jpg	marshes	X	17	no	0.999939	1	0.733404397964478	k	0	3	2
3	41	parks23.jpg	parks	A	17	yes	0.999929	1	0.826529264450073	j	0	3	2
3	42	mountains39.jpg	mountains	B	17	no	0.999969	1	0.777547836303711	k	0	3	2
3	43	canyons37.jpg	canyons	X	16	no	0.99994	1	0.656629800796509	k	0	3	3.5
3	44	bridges31.jpg	bridges	A	17	yes	0.999912	1	0.768742084503174	j	0	3	2
3	45	fields52.jpg	fields	B	17	yes	0.999873	1	0.847763776779175	j	0	3	2
3	46	lighthouses40.jpg	lighthouses	X	18	yes	0.999903	1	0.704819917678833	j	0	3	5
3	47	waterfalls20.jpg	waterfalls	X	17	no	0.999927	1	0.728927850723267	k	0	3	3.5
3	48	bridges53.jpg	bridges	A	18	yes	0.999928	1	0.712967872619629	j	0	3	2
3	49	fields34.jpg	fields	B	18	yes	0.99994	1	0.780096769332886	j	0	3	3.5
3	50	lakes50.jpg	lakes	X	18	yes	0.999907	1	0.665095806121826	j	0	3	3.5
3	51	forests20.jpg	forests	A	18	no	0.999888	1	0.606240272521973	k	0	3	3.5
3	52	beaches22.jpg	beaches	B	18	yes	0.999908	1	0.752326011657715	j	0	3	2
3	53	lakes43.jpg	lakes	X	19	yes	0.999906	1	0.772323846817017	j	0	3	2
3	54	bridges44.jpg	bridges	A	19	yes	0.999903	1	0.752402067184448	j	0	3	2
3	55	fields12.jpg	fields	B	19	yes	1.000343	1	1.22650003433228	j	0	3	3.5
3	56	parks53.jpg	parks	A	18	yes	0.999856	1	0.654591798782349	j	0	3	5
3	57	mountains33.jpg	mountains	B	18	no	0.999878	1	0.647607088088989	k	0	3	3.5
3	58	canyons50.jpg	canyons	X	17	no	0.999951	1	0.645687341690063	k	0	3	3.5
3	59	waterfalls13.jpg	waterfalls	X	18	no	0.999963	1	0.640728950500488	k	0	3	3.5
3	60	lighthouses38.jpg	lighthouses	X	19	yes	0.999979	1	0.665812730789185	j	0	3	3.5
3	61	waterfalls30.jpg	waterfalls	X	19	no	0.999938	1	0.655873775482178	k	0	3	2
3	62	forests49.jpg	forests	A	19	no	0.999842	1	0.609919786453247	k	0	3	2
3	63	beaches28.jpg	beaches	B	19	yes	0.999955	1	0.737936735153198	j	0	3	2
3	64	canyons52.jpg	canyons	X	18	no	0.999934	1	0.672002077102661	k	0	3	5
3	65	lakes3.jpg	lakes	X	20	yes	0.999912	1	0.624199867248535	j	0	3	5
3	66	deserts22.jpg	deserts	X	18	no	0.999892	1	0.743305683135986	k	0	3	5
3	67	waterfalls4.jpg	waterfalls	X	20	no	0.999965	1	0.736307859420776	k	0	3	3.5
3	68	canyons45.jpg	canyons	X	19	no	0.999893	1	0.726431608200073	k	0	3	5
3	69	forests42.jpg	forests	A	20	no	0.99985	1	0.593482971191406	k	0	3	3.5
3	70	beaches39.jpg	beaches	B	20	yes	1	1	0.751575708389282	j	0	3	5
3	71	parks29.jpg	parks	A	19	yes	0.999891	0	0.825668573379517	k	0	3	2
3	72	mountains20.jpg	mountains	B	19	no	0.999896	1	0.625743865966797	k	0	3	3.5
3	73	lighthouses14.jpg	lighthouses	X	20	yes	0.999921	1	0.615788221359253	j	0	3	2
3	74	marshes39.jpg	marshes	X	18	no	0.999905	1	0.656808853149414	k	0	3	3.5
3	75	parks24.jpg	parks	A	20	yes	0.999913	0	0.632912874221802	k	0	3	3.5
3	76	mountains6.jpg	mountains	B	20	no	0.999933	1	0.666941165924072	k	0	3	5
3	77	deserts11.jpg	deserts	X	19	no	1.000159	1	1.01111006736755	k	0	3	3.5
3	78	bridges5.jpg	bridges	A	20	yes	0.999892	1	0.646212816238403	j	0	3	3.5
3	79	fields50.jpg	fields	B	20	yes	0.999914	1	0.643205404281616	j	0	3	2
3	80	marshes15.jpg	marshes	X	19	no	0.999952	1	0.847244739532471	k	0	3	2
3	81	deserts1.jpg	deserts	X	20	no	0.999873	1	0.65334677696228	k	0	3	3.5
3	82	canyons7.jpg	canyons	X	20	no	0.999839	1	0.727443695068359	k	0	3	3.5
3	83	marshes2.jpg	marshes	X	20	no	0.999949	1	0.63749098777771	k	0	3	5
3	0	lighthouses50.jpg	lighthouses	X	21	yes	0.999894	1	0.83471155166626	j	0	4	5
3	1	bridges29.jpg	bridges	A	21	yes	0.999953	1	0.611754655838013	j	0	4	2
3	2	fields32.jpg	fields	B	21	yes	0.999812	1	0.890910625457764	j	0	4	2
3	3	lakes46.jpg	lakes	X	21	yes	0.999949	1	0.61597204208374	j	0	4	5
3	4	lighthouses55.jpg	lighthouses	X	22	yes	0.999855	1	0.698022842407227	j	0	4	3.5
3	5	waterfalls44.jpg	waterfalls	X	21	no	0.999822	1	0.800222873687744	k	0	4	3.5
3	6	deserts37.jpg	deserts	X	21	no	0.999928	1	0.579184055328369	k	0	4	2
3	7	forests10.jpg	forests	A	21	no	0.999926	1	0.594209671020508	k	0	4	3.5
3	8	beaches18.jpg	beaches	B	21	yes	0.999944	1	0.739277839660645	j	0	4	5
3	9	deserts15.jpg	deserts	X	22	no	0.999942	1	0.725431680679321	k	0	4	2
3	10	canyons2.jpg	canyons	X	21	no	0.999963	1	0.591454744338989	k	0	4	2
3	11	parks41.jpg	parks	A	21	yes	1.000334	1	1.08351731300354	j	0	4	3.5
3	12	mountains29.jpg	mountains	B	21	no	0.999951	1	0.90955376625061	k	0	4	2
3	13	forests19.jpg	forests	A	22	no	0.999888	1	0.612613677978516	k	0	4	2
3	14	beaches6.jpg	beaches	B	22	yes	1.000008	0	1.07174706459045	k	0	4	3.5
3	15	parks5.jpg	parks	A	22	yes	0.999931	1	0.699789047241211	j	0	4	5
3	16	mountains38.jpg	mountains	B	22	no	0.999859	1	0.640949726104736	k	0	4	2
3	17	bridges25.jpg	bridges	A	22	yes	0.999892	1	0.612966060638428	j	0	4	2
3	18	fields48.jpg	fields	B	22	yes	0.999909	1	0.764035940170288	j	0	4	5
3	19	waterfalls46.jpg	waterfalls	X	22	no	0.999955	1	0.674078941345215	k	0	4	3.5
3	20	lighthouses5.jpg	lighthouses	X	23	yes	0.999968	1	0.581164836883545	j	0	4	3.5
3	21	bridges15.jpg	bridges	A	23	yes	1.000019	1	0.868250846862793	j	0	4	3.5
3	22	fields15.jpg	fields	B	23	yes	0.99997	1	0.815331935882568	j	0	4	3.5
3	23	marshes41.jpg	marshes	X	21	no	0.999926	1	0.702378034591675	k	0	4	5
3	24	lakes30.jpg	lakes	X	22	yes	0.999912	1	0.591410636901855	j	0	4	3.5
3	25	marshes19.jpg	marshes	X	22	no	0.999866	1	0.745574712753296	k	0	4	3.5
3	26	forests25.jpg	forests	A	23	no	1.00008	1	1.07762908935547	k	0	4	3.5
3	27	beaches46.jpg	beaches	B	23	yes	0.999611	1	0.680737733840942	j	0	4	5
3	28	parks48.jpg	parks	A	23	yes	0.999927	1	0.695835590362549	j	0	4	3.5
3	29	mountains19.jpg	mountains	B	23	no	0.999902	1	0.640063762664795	k	0	4	2
3	30	marshes43.jpg	marshes	X	23	no	0.999989	1	0.699945211410522	k	0	4	2
3	31	canyons17.jpg	canyons	X	22	no	0.999814	1	0.644968748092651	k	0	4	2
3	32	parks33.jpg	parks	A	24	yes	0.999831	0	0.672080755233765	k	0	4	2
3	33	mountains47.jpg	mountains	B	24	no	0.999896	1	0.628092050552368	k	0	4	2
3	34	bridges28.jpg	bridges	A	24	yes	0.999993	1	1.00113368034363	j	0	4	2
3	35	fields5.jpg	fields	B	24	yes	0.999926	1	0.677141666412354	j	0	4	3.5
3	36	lighthouses33.jpg	lighthouses	X	24	yes	0.999902	1	0.6512451171875	j	0	4	2
3	37	lakes13.jpg	lakes	X	23	yes	1.000118	0	1.51529002189636	k	0	4	5
3	38	deserts36.jpg	deserts	X	23	no	0.999947	1	0.579391717910767	k	0	4	3.5
3	39	lighthouses12.jpg	lighthouses	X	25	yes	0.999961	1	0.486445188522339	j	0	4	2
3	40	lakes18.jpg	lakes	X	24	yes	0.999938	1	0.973478317260742	j	0	4	2
3	41	forests16.jpg	forests	A	24	no	0.999955	1	0.864554882049561	k	0	4	3.5
3	42	beaches3.jpg	beaches	B	24	yes	0.999859	0	0.723719120025635	k	0	4	5
3	43	waterfalls42.jpg	waterfalls	X	23	no	0.999686	1	0.565765619277954	k	0	4	3.5
3	44	deserts29.jpg	deserts	X	24	no	0.999896	1	0.708869695663452	k	0	4	5
3	45	marshes3.jpg	marshes	X	24	no	0.999891	1	0.601961612701416	k	0	4	2
3	46	lakes55.jpg	lakes	X	25	yes	1.000297	1	1.2169349193573	j	0	4	5
3	47	parks19.jpg	parks	A	25	yes	0.9999	1	0.591096639633179	j	0	4	3.5
3	48	mountains43.jpg	mountains	B	25	no	0.999857	1	0.782167911529541	k	0	4	3.5
3	49	canyons32.jpg	canyons	X	23	no	0.999894	1	0.687215328216553	k	0	4	5
3	50	lighthouses11.jpg	lighthouses	X	26	yes	0.999912	1	0.623302221298218	j	0	4	2
3	51	deserts27.jpg	deserts	X	25	no	0.999892	1	0.605419635772705	k	0	4	2
3	52	canyons54.jpg	canyons	X	24	no	0.999907	1	0.632335901260376	k	0	4	2
3	53	forests11.jpg	forests	A	25	no	0.99992	1	0.921528100967407	k	0	4	5
3	54	beaches32.jpg	beaches	B	25	yes	0.999902	1	0.762554883956909	j	0	4	5
3	55	marshes47.jpg	marshes	X	25	no	0.999951	1	0.645689010620117	k	0	4	3.5
3	56	canyons8.jpg	canyons	X	25	no	0.999886	1	0.717761039733887	k	0	4	3.5
3	57	parks2.jpg	parks	A	26	yes	1.000248	1	1.10985565185547	j	0	4	3.5
3	58	mountains53.jpg	mountains	B	26	no	0.999873	1	0.555908679962158	k	0	4	2
3	59	marshes36.jpg	marshes	X	26	no	0.999984	1	0.996946811676025	k	0	4	3.5
3	60	waterfalls25.jpg	waterfalls	X	24	no	0.999969	1	0.705008745193481	k	0	4	2
3	61	canyons35.jpg	canyons	X	26	no	0.999916	1	0.599088430404663	k	0	4	2
3	62	marshes9.jpg	marshes	X	27	no	0.999934	1	0.532102108001709	k	0	4	2
3	63	lakes35.jpg	lakes	X	26	yes	1.000163	0	1.01615786552429	k	0	4	2
3	64	parks7.jpg	parks	A	27	yes	0.999899	1	0.921205759048462	j	0	4	3.5
3	65	mountains31.jpg	mountains	B	27	no	0.999889	1	0.565310955047607	k	0	4	2
3	66	bridges13.jpg	bridges	A	25	yes	0.999875	1	0.728358507156372	j	0	4	3.5
3	67	fields9.jpg	fields	B	25	yes	0.999899	1	0.541443586349487	j	0	4	3.5
3	68	waterfalls23.jpg	waterfalls	X	25	no	0.999918	1	0.671534776687622	k	0	4	3.5
3	69	forests6.jpg	forests	A	26	no	0.999874	1	0.701546669006348	k	0	4	3.5
3	70	beaches24.jpg	beaches	B	26	yes	0.999925	1	1.08264398574829	j	0	4	2
3	71	waterfalls56.jpg	waterfalls	X	26	no	0.999872	1	0.948694944381714	k	0	4	3.5
3	72	deserts52.jpg	deserts	X	26	no	0.999966	1	0.521817684173584	k	0	4	2
3	73	bridges16.jpg	bridges	A	26	yes	0.99988	1	0.646872997283936	j	0	4	3.5
3	74	fields56.jpg	fields	B	26	yes	0.999919	1	0.580842971801758	j	0	4	5
3	75	deserts3.jpg	deserts	X	27	no	0.999947	1	0.690037727355957	k	0	4	3.5
3	76	lakes29.jpg	lakes	X	27	yes	0.999941	1	0.671128034591675	j	0	4	2
3	77	bridges14.jpg	bridges	A	27	yes	0.999862	1	0.714117527008057	j	0	4	5
3	78	fields42.jpg	fields	B	27	yes	0.999956	0	0.900322198867798	k	0	4	2
3	79	forests13.jpg	forests	A	27	no	0.999906	1	0.536394834518433	k	0	4	5
3	80	beaches5.jpg	beaches	B	27	yes	0.99992	1	0.729450225830078	j	0	4	5
3	81	waterfalls34.jpg	waterfalls	X	27	no	0.999816	1	0.801561594009399	k	0	4	3.5
3	82	canyons51.jpg	canyons	X	27	no	0.999587	1	0.77359414100647	k	0	4	2
3	83	lighthouses21.jpg	lighthouses	X	27	yes	0.999743	1	0.624675273895264	j	0	4	3.5
3	0	beaches48.jpg	beaches	B	28	yes	1.000186	1	1.34406757354736	j	0	5	3.5
3	1	lighthouses19.jpg	lighthouses	X	28	yes	0.999997	1	0.722707509994507	j	0	5	5
3	2	deserts47.jpg	deserts	X	28	no	0.999998	1	0.914001703262329	k	0	5	2
3	3	parks34.jpg	parks	A	28	yes	0.999981	1	0.782023429870605	j	0	5	5
3	4	fields49.jpg	fields	B	28	yes	1.000007	1	0.695117712020874	j	0	5	3.5
3	5	beaches17.jpg	beaches	B	29	yes	0.999991	1	0.5612633228302	j	0	5	2
3	6	lakes1.jpg	lakes	X	28	yes	0.999997	1	0.745205163955688	j	0	5	3.5
3	7	lighthouses23.jpg	lighthouses	X	29	yes	0.999965	1	0.549233675003052	j	0	5	3.5
3	8	canyons56.jpg	canyons	X	28	no	0.999888	1	0.759384155273438	k	0	5	3.5
3	9	parks28.jpg	parks	A	29	yes	0.999978	0	0.659423589706421	k	0	5	3.5
3	10	marshes13.jpg	marshes	X	28	no	0.99993	1	0.718570947647095	k	0	5	2
3	11	fields4.jpg	fields	B	29	yes	0.99992	1	0.61652398109436	j	0	5	2
3	12	parks10.jpg	parks	A	30	yes	0.99989	1	0.660600900650024	j	0	5	5
3	13	waterfalls12.jpg	waterfalls	X	28	no	1.000008	1	0.664702892303467	k	0	5	3.5
3	14	canyons21.jpg	canyons	X	29	no	0.999998	1	0.924832582473755	k	0	5	2
3	15	marshes51.jpg	marshes	X	29	no	0.999987	1	0.967807769775391	k	0	5	3.5
3	16	fields1.jpg	fields	B	30	yes	0.999974	1	0.668895721435547	j	0	5	5
3	17	forests36.jpg	forests	A	28	no	0.999978	1	0.751996755599976	k	0	5	3.5
3	18	bridges50.jpg	bridges	A	28	yes	0.999992	1	0.833071708679199	j	0	5	3.5
3	19	lighthouses54.jpg	lighthouses	X	30	yes	1.000004	1	0.560113906860352	j	0	5	3.5
3	20	forests8.jpg	forests	A	29	no	0.99999	1	0.726242780685425	k	0	5	3.5
3	21	parks35.jpg	parks	A	31	yes	0.99999	1	0.742326498031616	j	0	5	5
3	22	bridges45.jpg	bridges	A	29	yes	0.999957	1	0.660421371459961	j	0	5	3.5
3	23	beaches54.jpg	beaches	B	30	yes	0.999996	1	0.861489534378052	j	0	5	2
3	24	mountains42.jpg	mountains	B	28	no	0.999907	1	0.750528335571289	k	0	5	5
3	25	waterfalls31.jpg	waterfalls	X	29	no	0.999984	1	0.711614608764648	k	0	5	2
3	26	bridges21.jpg	bridges	A	30	yes	1.000002	1	0.732672691345215	j	0	5	3.5
3	27	waterfalls32.jpg	waterfalls	X	30	no	1.000089	1	0.994747638702393	k	0	5	3.5
3	28	marshes48.jpg	marshes	X	30	no	0.999982	1	0.701868534088135	k	0	5	2
3	29	mountains34.jpg	mountains	B	29	no	0.999985	1	0.772906541824341	k	0	5	5
3	30	canyons42.jpg	canyons	X	30	no	0.999992	1	0.722968578338623	k	0	5	5
3	31	deserts38.jpg	deserts	X	29	no	0.999987	1	0.945101737976074	k	0	5	3.5
3	32	beaches42.jpg	beaches	B	31	yes	0.999994	0	0.857176542282104	k	0	5	5
3	33	lighthouses32.jpg	lighthouses	X	31	yes	0.999993	1	0.685283899307251	j	0	5	2
3	34	deserts25.jpg	deserts	X	30	no	1.00001	1	0.691319704055786	k	0	5	2
3	35	waterfalls9.jpg	waterfalls	X	31	no	0.999986	1	0.682379722595215	k	0	5	2
3	36	marshes11.jpg	marshes	X	31	no	1.000014	1	0.629424810409546	k	0	5	2
3	37	waterfalls41.jpg	waterfalls	X	32	no	0.999986	1	0.628483533859253	k	0	5	3.5
3	38	parks18.jpg	parks	A	32	yes	0.999948	1	0.766558170318604	j	0	5	2
3	39	bridges41.jpg	bridges	A	31	yes	0.999945	1	0.624574422836304	j	0	5	2
3	40	beaches47.jpg	beaches	B	32	yes	0.999986	1	0.727620601654053	j	0	5	5
3	41	bridges52.jpg	bridges	A	32	yes	1.000032	1	0.571744918823242	j	0	5	2
3	42	parks13.jpg	parks	A	33	yes	0.999994	1	0.729762315750122	j	0	5	2
3	43	lakes19.jpg	lakes	X	29	yes	0.999984	1	0.629830360412598	j	0	5	3.5
3	44	fields16.jpg	fields	B	31	yes	0.999994	1	0.532919406890869	j	0	5	2
3	45	forests21.jpg	forests	A	30	no	1.000016	1	0.660943984985352	k	0	5	2
3	46	deserts51.jpg	deserts	X	31	no	0.999876	1	0.585965394973755	k	0	5	2
3	47	marshes28.jpg	marshes	X	32	no	0.999951	1	0.675343990325928	k	0	5	2
3	48	bridges26.jpg	bridges	A	33	yes	1.000012	1	0.808087587356567	j	0	5	5
3	49	waterfalls18.jpg	waterfalls	X	33	no	0.999998	1	0.769208669662476	k	0	5	5
3	50	deserts23.jpg	deserts	X	32	no	0.999858	1	0.628669738769531	k	0	5	2
3	51	mountains13.jpg	mountains	B	30	no	0.999834	1	0.706726789474487	k	0	5	2
3	52	fields25.jpg	fields	B	32	yes	0.99987	1	0.686779022216797	j	0	5	3.5
3	53	lighthouses8.jpg	lighthouses	X	32	yes	0.999921	1	0.711504936218262	j	0	5	3.5
3	54	deserts44.jpg	deserts	X	33	no	0.999886	1	0.615912675857544	k	0	5	3.5
3	55	parks32.jpg	parks	A	34	yes	0.999953	1	0.841976881027222	j	0	5	2
3	56	forests34.jpg	forests	A	31	no	0.999949	1	0.63805079460144	k	0	5	3.5
3	57	lakes37.jpg	lakes	X	30	yes	0.999857	1	0.594110727310181	j	0	5	2
3	58	lighthouses9.jpg	lighthouses	X	33	yes	0.999843	1	0.567180633544922	j	0	5	2
3	59	waterfalls51.jpg	waterfalls	X	34	no	0.999867	1	0.727268934249878	k	0	5	3.5
3	60	forests15.jpg	forests	A	32	no	0.999911	1	0.772329807281494	k	0	5	3.5
3	61	mountains36.jpg	mountains	B	31	no	0.99988	1	0.605406761169434	k	0	5	3.5
3	62	lakes54.jpg	lakes	X	31	yes	1.000343	1	1.67146992683411	j	0	5	3.5
3	63	beaches21.jpg	beaches	B	33	yes	0.999947	1	0.816566705703735	j	0	5	5
3	64	lakes9.jpg	lakes	X	32	yes	0.999958	1	0.847640514373779	j	0	5	3.5
3	65	canyons55.jpg	canyons	X	31	no	0.999911	1	0.917695760726929	k	0	5	5
3	66	lakes34.jpg	lakes	X	33	yes	1.000071	1	1.34478783607483	j	0	5	3.5
3	67	lighthouses49.jpg	lighthouses	X	34	yes	0.999878	1	0.632880926132202	j	0	5	5
3	68	forests2.jpg	forests	A	33	no	0.999916	1	0.882976055145264	k	0	5	2
3	69	deserts35.jpg	deserts	X	34	no	0.999888	1	0.763056039810181	k	0	5	3.5
3	70	canyons47.jpg	canyons	X	32	no	0.99996	1	0.62913966178894	k	0	5	3.5
3	71	marshes29.jpg	marshes	X	33	no	0.99992	1	0.638202905654907	k	0	5	5
3	72	bridges36.jpg	bridges	A	34	yes	0.999976	1	0.630274295806885	j	0	5	3.5
3	73	beaches56.jpg	beaches	B	34	yes	0.999866	1	0.867309808731079	j	0	5	2
3	74	mountains37.jpg	mountains	B	32	no	1.000043	1	0.709382772445679	k	0	5	5
3	75	marshes52.jpg	marshes	X	34	no	1.000166	1	1.39848160743713	k	0	5	2
3	76	fields55.jpg	fields	B	33	yes	0.999962	1	0.638547897338867	j	0	5	5
3	77	lakes28.jpg	lakes	X	34	yes	0.999913	1	0.703645944595337	j	0	5	3.5
3	78	canyons10.jpg	canyons	X	33	no	0.999882	1	0.95276665687561	k	0	5	2
3	79	mountains8.jpg	mountains	B	33	no	0.999886	1	0.660768508911133	k	0	5	2
3	80	fields53.jpg	fields	B	34	yes	0.999905	1	0.720801830291748	j	0	5	3.5
3	81	forests54.jpg	forests	A	34	no	0.999957	1	0.641894102096558	k	0	5	2
3	82	canyons30.jpg	canyons	X	34	no	0.999935	1	0.797909736633301	k	0	5	2
3	83	mountains12.jpg	mountains	B	34	no	0.999898	1	0.856971025466919	k	0	5	2
4	0	parks27.jpg	parks	B	0	yes	1.000088	0	0.648331880569458	j	1	1	2
4	1	fields27.jpg	fields	A	0	yes	0.999967	1	0.590664148330688	k	1	1	2
4	2	lighthouses23.jpg	lighthouses	X	0	yes	0.999892	1	0.818121910095215	k	1	1	5
4	3	lakes36.jpg	lakes	A	0	yes	0.999881	1	0.791307687759399	k	1	1	2
4	4	forests43.jpg	forests	B	0	no	0.999837	1	0.582293748855591	j	1	1	3.5
4	5	parks34.jpg	parks	B	1	yes	0.999872	1	0.822350740432739	k	1	1	2
4	6	deserts19.jpg	deserts	B	0	no	0.999875	1	0.940420627593994	j	1	1	3.5
4	7	waterfalls22.jpg	waterfalls	X	0	no	0.999942	1	0.681444644927979	j	1	1	2
4	8	forests19.jpg	forests	B	1	no	0.999852	1	0.558507919311523	j	1	1	3.5
4	9	fields37.jpg	fields	A	1	yes	0.999824	1	0.731575012207031	k	1	1	2
4	10	lakes6.jpg	lakes	A	1	yes	0.999865	1	0.602647304534912	k	1	1	2
4	11	waterfalls1.jpg	waterfalls	X	1	no	0.999958	1	0.520688772201538	j	1	1	3.5
4	12	lighthouses39.jpg	lighthouses	X	1	yes	0.999952	1	0.562737703323364	k	1	1	2
4	13	lakes24.jpg	lakes	A	2	yes	0.999903	1	0.810808420181274	k	1	1	3.5
4	14	fields12.jpg	fields	A	2	yes	0.999978	1	0.819880723953247	k	1	1	3.5
4	15	lighthouses43.jpg	lighthouses	X	2	yes	0.999909	1	0.487975120544434	k	1	1	2
4	16	mountains35.jpg	mountains	X	0	no	0.999949	1	0.556026220321655	j	1	1	3.5
4	17	lighthouses9.jpg	lighthouses	X	3	yes	0.999978	1	0.476093292236328	k	1	1	3.5
4	18	bridges12.jpg	bridges	A	0	yes	0.99975	1	0.495218276977539	k	1	1	3.5
4	19	fields34.jpg	fields	A	3	yes	0.999927	1	0.567303419113159	k	1	1	3.5
4	20	marshes46.jpg	marshes	X	0	no	0.999909	1	0.555336236953735	j	1	1	5
4	21	lakes18.jpg	lakes	A	3	yes	0.999876	1	0.545447826385498	k	1	1	5
4	22	beaches42.jpg	beaches	X	0	yes	0.999935	0	0.631574153900146	j	1	1	5
4	23	deserts10.jpg	deserts	B	1	no	0.999897	1	0.66468071937561	j	1	1	2
4	24	marshes44.jpg	marshes	X	1	no	0.999951	1	0.719710111618042	j	1	1	2
4	25	waterfalls28.jpg	waterfalls	X	2	no	0.999843	1	0.833781003952026	j	1	1	2
4	26	bridges45.jpg	bridges	A	1	yes	0.999834	1	0.833786725997925	k	1	1	2
4	27	beaches40.jpg	beaches	X	1	yes	0.999848	1	0.703832626342773	k	1	1	2
4	28	canyons19.jpg	canyons	X	0	no	0.999884	1	0.610890865325928	j	1	1	3.5
4	29	beaches25.jpg	beaches	X	2	yes	0.999898	1	0.800903797149658	k	1	1	3.5
4	30	fields11.jpg	fields	A	4	yes	0.999887	1	0.667998313903809	k	1	1	2
4	31	canyons51.jpg	canyons	X	1	no	0.999881	1	0.668103933334351	j	1	1	3.5
4	32	forests12.jpg	forests	B	2	no	0.99993	1	0.564208269119263	j	1	1	3.5
4	33	deserts45.jpg	deserts	B	2	no	0.999913	1	0.516255855560303	j	1	1	5
4	34	bridges10.jpg	bridges	A	2	yes	0.999905	1	0.534340143203735	k	1	1	2
4	35	waterfalls11.jpg	waterfalls	X	3	no	0.999881	1	0.577382564544678	j	1	1	3.5
4	36	parks45.jpg	parks	B	2	yes	0.999865	1	0.598488569259644	k	1	1	3.5
4	37	fields42.jpg	fields	A	5	yes	0.999862	1	0.85454797744751	k	1	1	2
4	38	marshes24.jpg	marshes	X	2	no	1.000044	1	1.00758385658264	j	1	1	2
4	39	bridges28.jpg	bridges	A	3	yes	0.999894	1	0.632580995559692	k	1	1	3.5
4	40	mountains2.jpg	mountains	X	1	no	0.999895	1	0.557672023773193	j	1	1	3.5
4	41	parks5.jpg	parks	B	3	yes	0.99989	1	0.556758642196655	k	1	1	2
4	42	bridges44.jpg	bridges	A	4	yes	0.999972	1	0.513765573501587	k	1	1	5
4	43	parks52.jpg	parks	B	4	yes	0.999853	1	0.51590895652771	k	1	1	5
4	44	beaches15.jpg	beaches	X	3	yes	0.99988	1	0.472975730895996	k	1	1	3.5
4	45	marshes52.jpg	marshes	X	3	no	0.999966	1	0.509074687957764	j	1	1	3.5
4	46	mountains38.jpg	mountains	X	2	no	0.999976	1	0.511495113372803	j	1	1	5
4	47	deserts15.jpg	deserts	B	3	no	0.999941	1	0.524236917495728	j	1	1	3.5
4	48	parks30.jpg	parks	B	5	yes	0.999905	1	0.627341985702515	k	1	1	5
4	49	marshes22.jpg	marshes	X	4	no	0.99989	1	0.547428846359253	j	1	1	3.5
4	50	beaches29.jpg	beaches	X	4	yes	0.999856	1	0.828508615493774	k	1	1	5
4	51	forests5.jpg	forests	B	3	no	0.999938	1	0.658599853515625	j	1	1	3.5
4	52	waterfalls2.jpg	waterfalls	X	4	no	0.99985	1	0.619646072387695	j	1	1	3.5
4	53	deserts35.jpg	deserts	B	4	no	0.999919	1	0.57576060295105	j	1	1	2
4	54	lakes14.jpg	lakes	A	4	yes	0.999811	1	0.597806692123413	k	1	1	3.5
4	55	forests55.jpg	forests	B	4	no	0.999878	1	0.48686695098877	j	1	1	5
4	56	lighthouses30.jpg	lighthouses	X	4	yes	0.999894	1	0.612950801849365	k	1	1	2
4	57	mountains33.jpg	mountains	X	3	no	0.999893	1	0.717070817947388	j	1	1	2
4	58	bridges29.jpg	bridges	A	5	yes	0.999906	1	0.542074918746948	k	1	1	2
4	59	waterfalls23.jpg	waterfalls	X	5	no	0.999809	1	0.776152610778809	j	1	1	3.5
4	60	deserts3.jpg	deserts	B	5	no	0.999889	1	0.585230588912964	j	1	1	2
4	61	fields51.jpg	fields	A	6	yes	0.999893	1	0.674249172210693	k	1	1	5
4	62	parks55.jpg	parks	B	6	yes	0.999901	1	0.566323041915894	k	1	1	2
4	63	canyons47.jpg	canyons	X	2	no	0.999897	1	0.52340292930603	j	1	1	2
4	64	forests3.jpg	forests	B	5	no	0.99987	1	0.521443843841553	j	1	1	2
4	65	lighthouses51.jpg	lighthouses	X	5	yes	0.999886	1	0.499499797821045	k	1	1	2
4	66	beaches34.jpg	beaches	X	5	yes	0.999876	1	0.579553127288818	k	1	1	5
4	67	lakes9.jpg	lakes	A	5	yes	0.999922	1	0.582659006118774	k	1	1	5
4	68	canyons54.jpg	canyons	X	3	no	0.999878	1	0.553736686706543	j	1	1	2
4	69	deserts14.jpg	deserts	B	6	no	0.999864	1	0.784807205200195	j	1	1	5
4	70	marshes26.jpg	marshes	X	5	no	0.999885	1	0.531911849975586	j	1	1	3.5
4	71	lighthouses48.jpg	lighthouses	X	6	yes	0.999948	1	0.580958127975464	k	1	1	5
4	72	beaches28.jpg	beaches	X	6	yes	0.999843	1	0.51111364364624	k	1	1	5
4	73	mountains30.jpg	mountains	X	4	no	0.999907	1	0.476226091384888	j	1	1	2
4	74	canyons49.jpg	canyons	X	4	no	0.999913	1	0.540225982666016	j	1	1	3.5
4	75	lakes38.jpg	lakes	A	6	yes	0.999898	1	0.530268907546997	k	1	1	3.5
4	76	canyons9.jpg	canyons	X	5	no	0.999929	1	0.666345834732056	j	1	1	2
4	77	forests51.jpg	forests	B	6	no	0.999869	1	0.72043514251709	j	1	1	2
4	78	mountains11.jpg	mountains	X	5	no	0.99991	1	0.499512910842896	j	1	1	5
4	79	marshes4.jpg	marshes	X	6	no	0.999857	1	0.572624683380127	j	1	1	3.5
4	80	mountains13.jpg	mountains	X	6	no	0.999921	1	0.446685314178467	j	1	1	3.5
4	81	bridges11.jpg	bridges	A	6	yes	0.999784	1	0.657754898071289	k	1	1	2
4	82	waterfalls55.jpg	waterfalls	X	6	no	0.999878	1	0.684808969497681	j	1	1	3.5
4	83	canyons40.jpg	canyons	X	6	no	0.999817	1	0.418915748596191	j	1	1	3.5
4	0	waterfalls13.jpg	waterfalls	X	7	no	0.999393	1	0.68807053565979	j	1	2	3.5
4	1	beaches20.jpg	beaches	X	7	yes	0.999972	1	0.968978404998779	k	1	2	5
4	2	lighthouses28.jpg	lighthouses	X	7	yes	0.999988	1	0.568196058273315	k	1	2	2
4	3	waterfalls44.jpg	waterfalls	X	8	no	0.999845	1	0.535307645797729	j	1	2	5
4	4	fields35.jpg	fields	A	7	yes	1.000014	1	0.53240180015564	k	1	2	3.5
4	5	forests36.jpg	forests	B	7	no	0.999939	1	0.514394283294678	j	1	2	5
4	6	mountains49.jpg	mountains	X	7	no	0.999899	1	0.556526899337769	j	1	2	5
4	7	marshes55.jpg	marshes	X	7	no	0.999904	1	0.64762282371521	j	1	2	3.5
4	8	canyons28.jpg	canyons	X	7	no	0.999923	1	0.507674694061279	j	1	2	2
4	9	beaches41.jpg	beaches	X	8	yes	0.999926	1	0.690720796585083	k	1	2	2
4	10	fields50.jpg	fields	A	8	yes	0.999933	1	0.606799840927124	k	1	2	3.5
4	11	forests47.jpg	forests	B	8	no	0.999943	1	0.479806661605835	j	1	2	5
4	12	lakes30.jpg	lakes	A	7	yes	0.999918	1	0.61993932723999	k	1	2	3.5
4	13	parks22.jpg	parks	B	7	yes	0.999978	1	0.656018495559692	k	1	2	2
4	14	canyons1.jpg	canyons	X	8	no	0.999934	1	0.537107706069946	j	1	2	3.5
4	15	marshes28.jpg	marshes	X	8	no	0.999999	1	0.575166702270508	j	1	2	2
4	16	waterfalls52.jpg	waterfalls	X	9	no	0.9999	1	0.499199867248535	j	1	2	3.5
4	17	bridges42.jpg	bridges	A	7	yes	0.999988	1	0.538286447525024	k	1	2	2
4	18	deserts56.jpg	deserts	B	7	no	0.999938	1	0.492350816726685	j	1	2	3.5
4	19	beaches3.jpg	beaches	X	9	yes	0.999962	0	0.774411678314209	j	1	2	3.5
4	20	waterfalls5.jpg	waterfalls	X	10	no	0.999933	1	0.537484884262085	j	1	2	3.5
4	21	mountains44.jpg	mountains	X	8	no	0.99961	1	0.566543102264404	j	1	2	3.5
4	22	lighthouses31.jpg	lighthouses	X	8	yes	0.999982	1	0.507614612579346	k	1	2	5
4	23	marshes39.jpg	marshes	X	9	no	0.999915	1	0.555741548538208	j	1	2	5
4	24	canyons16.jpg	canyons	X	9	no	0.999941	1	0.520823001861572	j	1	2	2
4	25	marshes43.jpg	marshes	X	10	no	0.999919	1	0.521869897842407	j	1	2	3.5
4	26	waterfalls33.jpg	waterfalls	X	11	no	0.999915	1	0.447956562042236	j	1	2	3.5
4	27	mountains34.jpg	mountains	X	9	no	0.999921	1	0.50102972984314	j	1	2	3.5
