subID	trial	probed	truepair	foilpair	sideorder	cond	rt	resp	acc	left	right	group
1	0	parks	fields	bridges	0	B	2.23413968086243	j	0	fields	bridges	0
1	1	bridges	lighthouses	parks	0	A	1.82455110549927	j	0	lighthouses	parks	0
1	2	waterfalls	mountains	lighthouses	1	A	1.38554787635803	f	0	lighthouses	mountains	0
1	3	lighthouses	bridges	waterfalls	0	B	1.26940774917603	f	1	bridges	waterfalls	0
1	4	mountains	waterfalls	fields	1	B	0.985635042190552	j	1	fields	waterfalls	0
1	5	fields	parks	mountains	1	A	1.00835800170898	j	1	mountains	parks	0
1	6	parks	fields	bridges	1	B	0.800171852111816	f	0	bridges	fields	0
1	7	fields	parks	mountains	0	A	0.878798246383667	j	0	parks	mountains	0
1	8	lighthouses	bridges	waterfalls	1	B	0.921774864196777	j	1	waterfalls	bridges	0
1	9	mountains	waterfalls	fields	0	B	0.950078964233398	f	1	waterfalls	fields	0
1	10	bridges	lighthouses	parks	0	A	0.877266645431519	j	0	lighthouses	parks	0
1	11	waterfalls	mountains	lighthouses	1	A	0.668325662612915	f	0	lighthouses	mountains	0
2	0	waterfalls	marshes	deserts	1	B	3.16917705535889	j	1	deserts	marshes	1
2	1	parks	deserts	canyons	1	B	2.47893357276917	f	0	canyons	deserts	1
2	2	canyons	mountains	parks	0	A	2.88696837425232	f	1	mountains	parks	1
2	3	mountains	canyons	marshes	0	B	1.18960165977478	f	1	canyons	marshes	1
2	4	deserts	parks	waterfalls	1	A	2.10824036598206	f	0	waterfalls	parks	1
2	5	marshes	waterfalls	mountains	1	A	1.32904410362244	f	0	mountains	waterfalls	1
2	6	waterfalls	marshes	deserts	0	B	1.71512770652771	f	1	marshes	deserts	1
2	7	canyons	mountains	parks	0	A	1.16434669494629	f	1	mountains	parks	1
2	8	mountains	canyons	marshes	1	B	1.62005853652954	j	1	marshes	canyons	1
2	9	deserts	parks	waterfalls	1	A	1.91012191772461	j	1	waterfalls	parks	1
2	10	parks	deserts	canyons	0	B	0.936726808547974	f	1	deserts	canyons	1
2	11	marshes	waterfalls	mountains	0	A	1.18306636810303	j	0	waterfalls	mountains	1
3	0	bridges	fields	beaches	1	A	2.26913785934448	f	0	beaches	fields	0
3	1	fields	bridges	parks	1	B	4.12980389595032	f	0	parks	bridges	0
3	2	mountains	parks	forests	0	B	2.22418904304504	j	0	parks	forests	0
3	3	forests	beaches	mountains	1	A	3.08362817764282	f	0	mountains	beaches	0
3	4	parks	mountains	fields	0	A	2.18224811553955	j	0	mountains	fields	0
3	5	beaches	forests	bridges	1	B	1.60504817962646	f	0	bridges	forests	0
3	6	forests	beaches	mountains	0	A	1.59115886688232	j	0	beaches	mountains	0
3	7	fields	bridges	parks	0	B	4.33845448493958	f	1	bridges	parks	0
3	8	beaches	forests	bridges	0	B	2.26094770431519	j	0	forests	bridges	0
3	9	mountains	parks	forests	0	B	1.39466142654419	j	0	parks	forests	0
3	10	bridges	fields	beaches	1	A	2.82603526115417	j	1	beaches	fields	0
3	11	parks	mountains	fields	1	A	3.34501957893372	j	1	fields	mountains	0
4	0	bridges	deserts	parks	0	A	3.14470314979553	f	1	deserts	parks	1
4	1	deserts	bridges	fields	1	B	3.64055323600769	f	0	fields	bridges	1
4	2	lakes	parks	forests	1	A	3.19527363777161	f	0	forests	parks	1
4	3	forests	fields	lakes	0	B	2.4340341091156	j	0	fields	lakes	1
4	4	fields	forests	deserts	1	A	4.68064832687378	f	0	deserts	forests	1
4	5	parks	lakes	bridges	1	B	3.0553994178772	f	0	bridges	lakes	1
4	6	parks	lakes	bridges	1	B	2.6233184337616	f	0	bridges	lakes	1
4	7	fields	forests	deserts	1	A	1.93824172019958	f	0	deserts	forests	1
4	8	deserts	bridges	fields	0	B	3.01297926902771	j	0	bridges	fields	1
4	9	bridges	deserts	parks	0	A	-1.0203001499176	j	0	deserts	parks	1
4	10	forests	fields	lakes	0	B	2.70543837547302	j	0	fields	lakes	1
4	11	lakes	parks	forests	0	A	3.2181556224823	j	0	parks	forests	1
5	0	beaches	mountains	lakes	0	B	3.35977458953857	j	0	mountains	lakes	0
5	1	waterfalls	marshes	bridges	0	A	3.92792773246765	f	1	marshes	bridges	0
5	2	marshes	waterfalls	mountains	0	B	3.66622877120972	f	1	waterfalls	mountains	0
5	3	lakes	bridges	beaches	1	A	3.97575330734253	j	1	beaches	bridges	0
5	4	bridges	lakes	waterfalls	1	B	3.47004985809326	f	0	waterfalls	lakes	0
5	5	mountains	beaches	marshes	0	A	3.0664210319519	f	1	beaches	marshes	0
5	6	mountains	beaches	marshes	1	A	4.17963409423828	f	0	marshes	beaches	0
5	7	bridges	lakes	waterfalls	1	B	1.94658923149109	j	1	waterfalls	lakes	0
5	8	beaches	mountains	lakes	0	B	1.34002685546875	j	0	mountains	lakes	0
5	9	marshes	waterfalls	mountains	0	B	2.0734486579895	j	0	waterfalls	mountains	0
5	10	lakes	bridges	beaches	1	A	-1.02649140357971	j	1	beaches	bridges	0
5	11	waterfalls	marshes	bridges	1	A	1.81925630569458	j	1	bridges	marshes	0
6	0	deserts	forests	parks	0	B	4.00498795509338	f	1	forests	parks	1
6	1	lighthouses	parks	marshes	1	B	4.15687680244446	j	1	marshes	parks	1
6	2	marshes	waterfalls	lighthouses	1	A	3.09285473823547	j	1	lighthouses	waterfalls	1
6	3	parks	lighthouses	deserts	0	A	3.3005268573761	f	1	lighthouses	deserts	1
6	4	waterfalls	marshes	forests	0	B	3.35373783111572	f	1	marshes	forests	1
6	5	forests	deserts	waterfalls	1	A	3.5736768245697	f	0	waterfalls	deserts	1
6	6	deserts	forests	parks	0	B	3.19480133056641	j	0	forests	parks	1
6	7	marshes	waterfalls	lighthouses	0	A	3.767573595047	f	1	waterfalls	lighthouses	1
6	8	lighthouses	parks	marshes	1	B	2.1996283531189	j	1	marshes	parks	1
6	9	parks	lighthouses	deserts	1	A	4.56437921524048	j	1	deserts	lighthouses	1
6	10	waterfalls	marshes	forests	1	B	3.28508496284485	f	0	forests	marshes	1
6	11	forests	deserts	waterfalls	0	A	2.02354764938354	j	0	deserts	waterfalls	1
7	0	forests	bridges	lakes	0	A	4.49847888946533	f	1	bridges	lakes	0
7	1	parks	lakes	fields	1	A	3.79937171936035	j	1	fields	lakes	0
7	2	fields	lighthouses	parks	0	B	3.63531565666199	f	1	lighthouses	parks	0
7	3	lakes	parks	forests	0	B	3.70215272903442	f	1	parks	forests	0
7	4	bridges	forests	lighthouses	1	B	2.2631242275238	j	1	lighthouses	forests	0
7	5	lighthouses	fields	bridges	1	A	3.50954961776733	f	0	bridges	fields	0
7	6	lighthouses	fields	bridges	0	A	2.45944404602051	j	0	fields	bridges	0
7	7	parks	lakes	fields	1	A	3.65396761894226	j	1	fields	lakes	0
7	8	fields	lighthouses	parks	0	B	3.60275506973267	f	1	lighthouses	parks	0
7	9	bridges	forests	lighthouses	1	B	4.26452040672302	j	1	lighthouses	forests	0
7	10	lakes	parks	forests	0	B	4.01317572593689	j	0	parks	forests	0
7	11	forests	bridges	lakes	1	A	3.2652223110199	j	1	lakes	bridges	0
8	0	beaches	bridges	marshes	0	A	2.97282075881958	f	1	bridges	marshes	0
8	1	lakes	canyons	bridges	1	A	2.40818381309509	j	1	bridges	canyons	0
8	2	marshes	lighthouses	beaches	1	B	3.44029474258423	j	1	beaches	lighthouses	0
8	3	canyons	lakes	lighthouses	1	B	2.12808060646057	f	0	lighthouses	lakes	0
8	4	bridges	beaches	lakes	1	B	2.51834750175476	j	1	lakes	beaches	0
8	5	lighthouses	marshes	canyons	0	A	1.58174586296082	j	0	marshes	canyons	0
8	6	beaches	bridges	marshes	0	A	0.249136924743652	f	1	bridges	marshes	0
8	7	lakes	canyons	bridges	1	A	3.06826496124268	f	0	bridges	canyons	0
8	8	lighthouses	marshes	canyons	1	A	2.52335786819458	f	0	canyons	marshes	0
8	9	marshes	lighthouses	beaches	0	B	2.31585693359375	j	0	lighthouses	beaches	0
8	10	canyons	lakes	lighthouses	0	B	1.98030424118042	f	1	lakes	lighthouses	0
8	11	bridges	beaches	lakes	0	B	1.98728775978088	j	0	beaches	lakes	0
10	0	marshes	lighthouses	fields	0	B	NaN	MISSING	NaN	lighthouses	fields	1
10	1	canyons	fields	mountains	0	B	3.35644030570984	f	1	fields	mountains	1
10	2	beaches	mountains	lighthouses	1	B	1.94855833053589	f	0	lighthouses	mountains	1
10	3	fields	canyons	marshes	0	A	1.646892786026	f	1	canyons	marshes	1
10	4	lighthouses	marshes	beaches	0	A	1.09829115867615	f	1	marshes	beaches	1
10	5	mountains	beaches	canyons	1	A	1.16543865203857	j	1	canyons	beaches	1
10	6	marshes	lighthouses	fields	0	B	0.71973180770874	f	1	lighthouses	fields	1
10	7	beaches	mountains	lighthouses	1	B	0.287692785263062	j	1	lighthouses	mountains	1
10	8	lighthouses	marshes	beaches	0	A	2.23149871826172	f	1	marshes	beaches	1
10	9	canyons	fields	mountains	1	B	1.40984869003296	j	1	mountains	fields	1
10	10	fields	canyons	marshes	1	A	2.09566450119019	j	1	marshes	canyons	1
10	11	mountains	beaches	canyons	1	A	2.8822135925293	f	0	canyons	beaches	1
13	0	deserts	waterfalls	fields	1	B	NaN	MISSING	NaN	fields	waterfalls	0
13	1	fields	mountains	deserts	1	A	4.79451537132263	j	1	deserts	mountains	0
13	2	forests	lakes	mountains	0	A	2.95813369750977	j	0	lakes	mountains	0
13	3	lakes	forests	waterfalls	1	B	4.13714265823364	f	0	waterfalls	forests	0
13	4	mountains	fields	forests	1	B	1.79236268997192	f	0	forests	fields	0
13	5	waterfalls	deserts	lakes	1	A	3.80149507522583	f	0	lakes	deserts	0
13	6	deserts	waterfalls	fields	0	B	4.03192400932312	j	0	waterfalls	fields	0
13	7	lakes	forests	waterfalls	0	B	3.4549458026886	j	0	forests	waterfalls	0
13	8	fields	mountains	deserts	0	A	4.59452939033508	f	1	mountains	deserts	0
13	9	forests	lakes	mountains	1	A	4.73235106468201	j	1	mountains	lakes	0
13	10	mountains	fields	forests	0	B	3.48921918869019	j	0	fields	forests	0
13	11	waterfalls	deserts	lakes	0	A	2.9173276424408	j	0	deserts	lakes	0
14	0	forests	waterfalls	bridges	0	B	NaN	MISSING	NaN	waterfalls	bridges	1
14	1	canyons	bridges	fields	0	B	3.52255940437317	f	1	bridges	fields	1
14	2	fields	marshes	canyons	1	A	3.80701780319214	j	1	canyons	marshes	1
14	3	marshes	fields	waterfalls	0	B	3.77316617965698	f	1	fields	waterfalls	1
14	4	waterfalls	forests	marshes	1	A	3.19853186607361	f	0	marshes	forests	1
14	5	bridges	canyons	forests	1	A	2.09653806686401	j	1	forests	canyons	1
14	6	waterfalls	forests	marshes	0	A	2.27555632591248	j	0	forests	marshes	1
14	7	forests	waterfalls	bridges	1	B	2.68665313720703	j	1	bridges	waterfalls	1
14	8	fields	marshes	canyons	0	A	2.74335885047913	f	1	marshes	canyons	1
14	9	marshes	fields	waterfalls	0	B	3.30027890205383	f	1	fields	waterfalls	1
14	10	canyons	bridges	fields	1	B	2.02109575271606	j	1	fields	bridges	1
14	11	bridges	canyons	forests	1	A	2.64484286308289	j	1	forests	canyons	1
15	0	deserts	bridges	lighthouses	0	A	NaN	MISSING	NaN	bridges	lighthouses	0
15	1	lighthouses	lakes	deserts	1	B	2.60139465332031	f	0	deserts	lakes	0
15	2	canyons	mountains	lakes	1	B	2.51004791259766	j	1	lakes	mountains	0
15	3	bridges	deserts	mountains	1	B	2.52015805244446	j	1	mountains	deserts	0
15	4	lakes	lighthouses	canyons	0	A	1.88955330848694	j	0	lighthouses	canyons	0
15	5	mountains	canyons	bridges	0	A	1.26622366905212	f	1	canyons	bridges	0
15	6	bridges	deserts	mountains	1	B	1.41865301132202	f	0	mountains	deserts	0
15	7	lighthouses	lakes	deserts	0	B	1.43298625946045	f	1	lakes	deserts	0
15	8	deserts	bridges	lighthouses	0	A	1.49574875831604	f	1	bridges	lighthouses	0
15	9	canyons	mountains	lakes	0	B	1.34746479988098	f	1	mountains	lakes	0
15	10	lakes	lighthouses	canyons	1	A	1.39727282524109	j	1	canyons	lighthouses	0
15	11	mountains	canyons	bridges	1	A	1.17690300941467	f	0	bridges	canyons	0
16	0	lighthouses	canyons	bridges	1	B	3.15007066726685	f	0	bridges	canyons	1
16	1	deserts	forests	canyons	1	B	2.06679391860962	f	0	canyons	forests	1
16	2	canyons	lighthouses	deserts	1	A	2.09615683555603	f	0	deserts	lighthouses	1
16	3	fields	bridges	forests	1	B	1.77986168861389	j	1	forests	bridges	1
16	4	bridges	fields	lighthouses	1	A	2.01730751991272	j	1	lighthouses	fields	1
16	5	forests	deserts	fields	0	A	1.43778157234192	j	0	deserts	fields	1
16	6	fields	bridges	forests	0	B	1.22201085090637	f	1	bridges	forests	1
16	7	lighthouses	canyons	bridges	0	B	1.9670877456665	j	0	canyons	bridges	1
16	8	forests	deserts	fields	0	A	1.30311465263367	j	0	deserts	fields	1
16	9	bridges	fields	lighthouses	1	A	1.64935541152954	j	1	lighthouses	fields	1
16	10	canyons	lighthouses	deserts	0	A	1.13642454147339	j	0	lighthouses	deserts	1
16	11	deserts	forests	canyons	0	B	1.11173462867737	j	0	forests	canyons	1
17	0	fields	parks	waterfalls	1	A	NaN	MISSING	NaN	waterfalls	parks	0
17	1	deserts	marshes	canyons	1	B	2.42250299453735	f	0	canyons	marshes	0
17	2	waterfalls	canyons	fields	0	B	-1.07743406295776	f	1	canyons	fields	0
17	3	marshes	deserts	parks	1	A	-7.12733864784241	f	0	parks	deserts	0
17	4	parks	fields	marshes	0	B	-13.1772303581238	f	1	fields	marshes	0
17	5	canyons	waterfalls	deserts	0	A	2.72979974746704	f	1	waterfalls	deserts	0
17	6	marshes	deserts	parks	0	A	4.50870680809021	f	1	deserts	parks	0
17	7	canyons	waterfalls	deserts	1	A	2.95769667625427	j	1	deserts	waterfalls	0
17	8	deserts	marshes	canyons	1	B	2.19266986846924	j	1	canyons	marshes	0
17	9	fields	parks	waterfalls	1	A	-1.04061317443848	j	1	waterfalls	parks	0
17	10	waterfalls	canyons	fields	0	B	2.22546172142029	j	0	canyons	fields	0
17	11	parks	fields	marshes	0	B	2.79690861701965	f	1	fields	marshes	0
19	0	forests	mountains	lakes	1	B	2.3220546245575	f	0	lakes	mountains	1
19	1	lakes	canyons	forests	1	A	2.41248083114624	f	0	forests	canyons	1
19	2	beaches	bridges	mountains	1	B	1.8065185546875	j	1	mountains	bridges	1
19	3	canyons	lakes	bridges	1	B	1.901526927948	j	1	bridges	lakes	1
19	4	mountains	forests	beaches	0	A	1.39462661743164	j	0	forests	beaches	1
19	5	bridges	beaches	canyons	0	A	1.57664823532104	j	0	beaches	canyons	1
19	6	mountains	forests	beaches	1	A	2.01495838165283	f	0	beaches	forests	1
19	7	lakes	canyons	forests	0	A	1.82209610939026	j	0	canyons	forests	1
19	8	canyons	lakes	bridges	0	B	1.2534863948822	j	0	lakes	bridges	1
19	9	forests	mountains	lakes	0	B	1.30054783821106	j	0	mountains	lakes	1
19	10	bridges	beaches	canyons	0	A	1.36842775344849	f	1	beaches	canyons	1
19	11	beaches	bridges	mountains	1	B	1.57052683830261	j	1	mountains	bridges	1
20	0	beaches	bridges	fields	1	A	NaN	MISSING	NaN	fields	bridges	0
20	1	deserts	mountains	bridges	1	A	0.163856999999552	j	1	bridges	mountains	0
20	2	fields	parks	beaches	1	B	4.10108219999893	f	0	beaches	parks	0
20	3	mountains	deserts	parks	0	B	2.02143449999858	f	1	deserts	parks	0
20	4	bridges	beaches	deserts	1	B	4.80443020000166	j	1	deserts	beaches	0
20	5	parks	fields	mountains	0	A	2.09488229999988	f	1	fields	mountains	0
20	6	bridges	beaches	deserts	0	B	2.73557500000243	f	1	beaches	deserts	0
20	7	deserts	mountains	bridges	0	A	2.282576900001	f	1	mountains	bridges	0
20	8	beaches	bridges	fields	1	A	2.67746160000024	j	1	fields	bridges	0
20	9	fields	parks	beaches	0	B	1.76141089999874	f	1	parks	beaches	0
20	10	parks	fields	mountains	0	A	1.21785939999972	f	1	fields	mountains	0
20	11	mountains	deserts	parks	1	B	1.34865780000109	j	1	parks	deserts	0
21	0	beaches	parks	mountains	1	A	2.80959057807922	f	0	mountains	parks	1
21	1	lighthouses	deserts	marshes	0	B	2.52025055885315	f	1	deserts	marshes	1
21	2	parks	beaches	deserts	1	B	2.40684270858765	f	0	deserts	beaches	1
21	3	deserts	lighthouses	parks	0	A	2.30271673202515	f	1	lighthouses	parks	1
21	4	mountains	marshes	beaches	0	B	2.17959666252136	f	1	marshes	beaches	1
21	5	marshes	mountains	lighthouses	0	A	2.2402126789093	f	1	mountains	lighthouses	1
21	6	deserts	lighthouses	parks	0	A	2.56562161445618	f	1	lighthouses	parks	1
21	7	marshes	mountains	lighthouses	1	A	2.19118285179138	j	1	lighthouses	mountains	1
21	8	parks	beaches	deserts	0	B	1.40563583374023	j	0	beaches	deserts	1
21	9	mountains	marshes	beaches	1	B	1.30353879928589	j	1	beaches	marshes	1
21	10	lighthouses	deserts	marshes	1	B	2.38392353057861	j	1	marshes	deserts	1
21	11	beaches	parks	mountains	1	A	3.31470346450806	j	1	mountains	parks	1
23	0	canyons	marshes	fields	1	A	3.8073456287384	j	1	fields	marshes	1
23	1	fields	parks	canyons	0	B	3.55721259117126	j	0	parks	canyons	1
23	2	lighthouses	lakes	marshes	1	A	3.74752855300903	f	0	marshes	lakes	1
23	3	lakes	lighthouses	parks	0	B	2.40996170043945	f	1	lighthouses	parks	1
23	4	marshes	canyons	lighthouses	0	B	2.22692656517029	f	1	canyons	lighthouses	1
23	5	parks	fields	lakes	0	A	3.02338671684265	f	1	fields	lakes	1
23	6	marshes	canyons	lighthouses	0	B	-1.03846740722656	f	1	canyons	lighthouses	1
23	7	fields	parks	canyons	1	B	1.93270063400269	f	0	canyons	parks	1
23	8	lighthouses	lakes	marshes	0	A	1.02496361732483	j	0	lakes	marshes	1
23	9	lakes	lighthouses	parks	1	B	4.41515636444092	f	0	parks	lighthouses	1
23	10	parks	fields	lakes	1	A	2.95791387557983	j	1	lakes	fields	1
23	11	canyons	marshes	fields	1	A	1.5876784324646	j	1	fields	marshes	1
24	0	waterfalls	marshes	forests	1	A	2.03523397445679	j	1	forests	marshes	1
24	1	forests	lakes	waterfalls	1	B	2.32060694694519	j	1	waterfalls	lakes	1
24	2	parks	beaches	lakes	1	B	1.75375485420227	f	0	lakes	beaches	1
24	3	beaches	parks	marshes	0	A	2.05671191215515	f	1	parks	marshes	1
24	4	lakes	forests	parks	0	A	2.57103705406189	f	1	forests	parks	1
24	5	marshes	waterfalls	beaches	1	B	2.55477285385132	j	1	beaches	waterfalls	1
24	6	lakes	forests	parks	0	A	1.40773177146912	j	0	forests	parks	1
24	7	marshes	waterfalls	beaches	1	B	2.59258008003235	f	0	beaches	waterfalls	1
24	8	parks	beaches	lakes	1	B	2.01422786712646	f	0	lakes	beaches	1
24	9	beaches	parks	marshes	0	A	2.27317905426025	j	0	parks	marshes	1
24	10	waterfalls	marshes	forests	0	A	1.87129282951355	f	1	marshes	forests	1
24	11	forests	lakes	waterfalls	0	B	2.11377882957458	f	1	lakes	waterfalls	1
25	0	marshes	beaches	bridges	1	B	2.65873408317566	j	1	bridges	beaches	0
25	1	fields	bridges	parks	0	B	1.82521390914917	f	1	bridges	parks	0
25	2	lakes	parks	beaches	0	B	1.04290390014648	j	0	parks	beaches	0
25	3	beaches	marshes	lakes	0	A	2.21561098098755	j	0	marshes	lakes	0
25	4	bridges	fields	marshes	0	A	2.70285701751709	f	1	fields	marshes	0
25	5	parks	lakes	fields	0	A	2.5582070350647	f	1	lakes	fields	0
25	6	lakes	parks	beaches	1	B	1.37217688560486	f	0	beaches	parks	0
25	7	parks	lakes	fields	1	A	0.935948848724365	f	0	fields	lakes	0
25	8	bridges	fields	marshes	1	A	1.11379289627075	f	0	marshes	fields	0
25	9	fields	bridges	parks	1	B	1.35673499107361	f	0	parks	bridges	0
25	10	beaches	marshes	lakes	0	A	1.79255986213684	f	1	marshes	lakes	0
25	11	marshes	beaches	bridges	1	B	1.60025691986084	f	0	bridges	beaches	0
26	0	fields	marshes	waterfalls	1	B	NaN	MISSING	NaN	waterfalls	marshes	1
26	1	waterfalls	forests	fields	0	A	NaN	MISSING	NaN	forests	fields	1
26	2	marshes	fields	lakes	1	A	3.92085003852844	f	0	lakes	fields	1
26	3	forests	waterfalls	canyons	0	B	2.89691185951233	f	1	waterfalls	canyons	1
26	4	lakes	canyons	marshes	0	B	3.01252317428589	j	0	canyons	marshes	1
26	5	canyons	lakes	forests	1	A	3.68262195587158	f	0	forests	lakes	1
26	6	canyons	lakes	forests	1	A	4.44994592666626	f	0	forests	lakes	1
26	7	waterfalls	forests	fields	1	A	2.88904881477356	j	1	fields	forests	1
26	8	forests	waterfalls	canyons	0	B	-1.02301812171936	j	0	waterfalls	canyons	1
26	9	marshes	fields	lakes	0	A	-7.04926323890686	j	0	fields	lakes	1
26	10	fields	marshes	waterfalls	0	B	-13.092159986496	j	0	marshes	waterfalls	1
26	11	lakes	canyons	marshes	1	B	3.27803802490234	f	0	marshes	canyons	1
27	0	deserts	marshes	mountains	1	B	NaN	MISSING	NaN	mountains	marshes	0
27	1	marshes	deserts	bridges	0	A	2.60752058029175	j	0	deserts	bridges	0
27	2	waterfalls	mountains	forests	0	B	1.88938856124878	j	0	mountains	forests	0
27	3	forests	bridges	waterfalls	1	A	1.78452563285828	j	1	waterfalls	bridges	0
27	4	bridges	forests	marshes	0	B	2.36696553230286	j	0	forests	marshes	0
27	5	mountains	waterfalls	deserts	1	A	1.68989038467407	f	0	deserts	waterfalls	0
27	6	waterfalls	mountains	forests	0	B	1.34804558753967	j	0	mountains	forests	0
27	7	marshes	deserts	bridges	0	A	1.6504533290863	j	0	deserts	bridges	0
27	8	deserts	marshes	mountains	0	B	1.46989154815674	f	1	marshes	mountains	0
27	9	forests	bridges	waterfalls	1	A	2.33364534378052	f	0	waterfalls	bridges	0
27	10	mountains	waterfalls	deserts	1	A	3.20951843261719	j	1	deserts	waterfalls	0
27	11	bridges	forests	marshes	1	B	1.60607218742371	f	0	marshes	forests	0
28	0	lighthouses	parks	fields	0	A	2.1485698223114	j	0	parks	fields	1
28	1	marshes	mountains	canyons	1	B	2.25510382652283	f	0	canyons	mountains	1
28	2	mountains	marshes	parks	1	A	1.79994297027588	j	1	parks	marshes	1
28	3	fields	canyons	lighthouses	0	B	1.34522485733032	j	0	canyons	lighthouses	1
28	4	parks	lighthouses	mountains	0	B	0.857726097106934	f	1	lighthouses	mountains	1
28	5	canyons	fields	marshes	1	A	1.34687066078186	f	0	marshes	fields	1
28	6	canyons	fields	marshes	1	A	1.07385301589966	f	0	marshes	fields	1
28	7	mountains	marshes	parks	0	A	1.04126381874084	j	0	marshes	parks	1
28	8	marshes	mountains	canyons	0	B	1.13836288452148	j	0	mountains	canyons	1
28	9	parks	lighthouses	mountains	1	B	1.32522487640381	j	1	mountains	lighthouses	1
28	10	lighthouses	parks	fields	0	A	1.13194870948792	f	1	parks	fields	1
28	11	fields	canyons	lighthouses	1	B	1.1939115524292	j	1	lighthouses	canyons	1
29	0	forests	deserts	mountains	0	B	NaN	MISSING	NaN	deserts	mountains	0
29	1	lakes	mountains	parks	0	B	2.76020812988281	j	0	mountains	parks	0
29	2	beaches	parks	deserts	0	B	2.45894289016724	f	1	parks	deserts	0
29	3	deserts	forests	beaches	0	A	1.52816081047058	j	0	forests	beaches	0
29	4	mountains	lakes	forests	0	A	1.8824508190155	j	0	lakes	forests	0
29	5	parks	beaches	lakes	1	A	1.3596019744873	f	0	lakes	beaches	0
29	6	deserts	forests	beaches	1	A	1.35799884796143	f	0	beaches	forests	0
29	7	beaches	parks	deserts	0	B	2.05779385566711	j	0	parks	deserts	0
29	8	lakes	mountains	parks	1	B	1.41009497642517	f	0	parks	mountains	0
29	9	forests	deserts	mountains	1	B	1.7646119594574	j	1	mountains	deserts	0
29	10	mountains	lakes	forests	1	A	1.6362190246582	f	0	forests	lakes	0
29	11	parks	beaches	lakes	1	A	1.60512280464172	j	1	lakes	beaches	0
30	0	deserts	bridges	beaches	0	A	3.29320096969604	j	0	bridges	beaches	1
30	1	beaches	parks	deserts	0	B	1.82199597358704	j	0	parks	deserts	1
30	2	bridges	deserts	lighthouses	0	B	2.34368586540222	j	0	deserts	lighthouses	1
30	3	parks	beaches	waterfalls	0	A	2.39744400978088	f	1	beaches	waterfalls	1
30	4	lighthouses	waterfalls	bridges	1	A	1.46251678466797	j	1	bridges	waterfalls	1
30	5	waterfalls	lighthouses	parks	1	B	1.26468300819397	j	1	parks	lighthouses	1
30	6	waterfalls	lighthouses	parks	1	B	1.40949583053589	j	1	parks	lighthouses	1
30	7	parks	beaches	waterfalls	1	A	2.61483192443848	j	1	waterfalls	beaches	1
30	8	lighthouses	waterfalls	bridges	0	A	1.22615885734558	f	1	waterfalls	bridges	1
30	9	bridges	deserts	lighthouses	1	B	1.9710578918457	f	0	lighthouses	deserts	1
30	10	beaches	parks	deserts	0	B	1.5981240272522	j	0	parks	deserts	1
30	11	deserts	bridges	beaches	1	A	2.67785406112671	f	0	beaches	bridges	1
31	0	waterfalls	forests	bridges	1	A	2.58298087120056	f	0	bridges	forests	0
31	1	bridges	marshes	waterfalls	1	B	4.17702889442444	j	1	waterfalls	marshes	0
31	2	lakes	beaches	forests	0	A	2.21573209762573	f	1	beaches	forests	0
31	3	marshes	bridges	beaches	0	A	2.82302117347717	f	1	bridges	beaches	0
31	4	forests	waterfalls	lakes	1	B	2.91987800598145	f	0	lakes	waterfalls	0
31	5	beaches	lakes	marshes	0	B	2.55866980552673	f	1	lakes	marshes	0
31	6	lakes	beaches	forests	0	A	3.50213193893433	f	1	beaches	forests	0
31	7	marshes	bridges	beaches	1	A	3.99697995185852	j	1	beaches	bridges	0
31	8	waterfalls	forests	bridges	0	A	2.91393804550171	f	1	forests	bridges	0
31	9	bridges	marshes	waterfalls	1	B	4.47064185142517	f	0	waterfalls	marshes	0
31	10	beaches	lakes	marshes	0	B	3.90897512435913	f	1	lakes	marshes	0
31	11	forests	waterfalls	lakes	1	B	3.53661513328552	j	1	lakes	waterfalls	0
32	0	fields	parks	marshes	1	A	1.27833700180054	j	1	marshes	parks	1
32	1	marshes	deserts	fields	0	B	1.07771277427673	j	0	deserts	fields	1
32	2	parks	fields	beaches	0	B	1.03147387504578	j	0	fields	beaches	1
32	3	lighthouses	beaches	deserts	0	B	1.05875706672668	f	1	beaches	deserts	1
32	4	deserts	marshes	lighthouses	1	A	1.09117698669434	j	1	lighthouses	marshes	1
32	5	beaches	lighthouses	parks	0	A	0.867262840270996	f	1	lighthouses	parks	1
32	6	fields	parks	marshes	0	A	1.16590261459351	j	0	parks	marshes	1
32	7	lighthouses	beaches	deserts	1	B	1.31258988380432	f	0	deserts	beaches	1
32	8	beaches	lighthouses	parks	1	A	1.48196196556091	j	1	parks	lighthouses	1
32	9	deserts	marshes	lighthouses	1	A	1.20816993713379	f	0	lighthouses	marshes	1
32	10	parks	fields	beaches	0	B	2.05641794204712	j	0	fields	beaches	1
32	11	marshes	deserts	fields	1	B	1.18065690994263	f	0	fields	deserts	1
33	0	deserts	beaches	canyons	0	B	2.54537177085876	j	0	beaches	canyons	1
33	1	parks	canyons	waterfalls	0	B	2.96207094192505	j	0	canyons	waterfalls	1
33	2	canyons	parks	deserts	1	A	2.10522103309631	f	0	deserts	parks	1
33	3	mountains	waterfalls	beaches	0	B	2.89083695411682	f	1	waterfalls	beaches	1
33	4	waterfalls	mountains	parks	1	A	2.49605703353882	j	1	parks	mountains	1
33	5	beaches	deserts	mountains	1	A	3.26612281799316	j	1	mountains	deserts	1
33	6	mountains	waterfalls	beaches	0	B	1.379314661026	f	1	waterfalls	beaches	1
33	7	deserts	beaches	canyons	1	B	1.19709587097168	f	0	canyons	beaches	1
33	8	canyons	parks	deserts	1	A	0.968308925628662	f	0	deserts	parks	1
33	9	beaches	deserts	mountains	1	A	2.01099109649658	f	0	mountains	deserts	1
33	10	waterfalls	mountains	parks	0	A	1.94759297370911	f	1	mountains	parks	1
33	11	parks	canyons	waterfalls	0	B	2.6538290977478	j	0	canyons	waterfalls	1
34	0	bridges	lighthouses	deserts	1	A	3.15359377861023	j	1	deserts	lighthouses	0
34	1	fields	canyons	lighthouses	1	A	3.51281690597534	f	0	lighthouses	canyons	0
34	2	lighthouses	bridges	fields	0	B	1.13830208778381	j	0	bridges	fields	0
34	3	canyons	fields	lakes	0	B	4.66756892204285	f	1	fields	lakes	0
34	4	lakes	deserts	canyons	1	A	4.03751301765442	f	0	canyons	deserts	0
34	5	deserts	lakes	bridges	1	B	-1.03985095024109	f	0	bridges	lakes	0
34	6	lighthouses	bridges	fields	1	B	2.43299388885498	j	1	fields	bridges	0
34	7	canyons	fields	lakes	0	B	2.71172118186951	f	1	fields	lakes	0
34	8	lakes	deserts	canyons	1	A	2.12520503997803	f	0	canyons	deserts	0
34	9	bridges	lighthouses	deserts	0	A	1.58977103233337	f	1	lighthouses	deserts	0
34	10	fields	canyons	lighthouses	0	A	1.33851218223572	f	1	canyons	lighthouses	0
34	11	deserts	lakes	bridges	0	B	2.90606594085693	f	1	lakes	bridges	0
36	0	mountains	lighthouses	forests	1	B	1.72121691703796	f	0	forests	lighthouses	0
36	1	forests	waterfalls	mountains	1	A	1.36242079734802	f	0	mountains	waterfalls	0
36	2	waterfalls	forests	fields	0	B	1.16424012184143	j	0	forests	fields	0
36	3	canyons	fields	lighthouses	0	B	1.52418899536133	f	1	fields	lighthouses	0
36	4	lighthouses	mountains	canyons	1	A	1.07063794136047	j	1	canyons	mountains	0
36	5	fields	canyons	waterfalls	1	A	0.941464900970459	j	1	waterfalls	canyons	0
36	6	canyons	fields	lighthouses	0	B	1.20737195014954	j	0	fields	lighthouses	0
36	7	waterfalls	forests	fields	0	B	0.956017971038818	f	1	forests	fields	0
36	8	fields	canyons	waterfalls	1	A	0.964367866516113	f	0	waterfalls	canyons	0
36	9	mountains	lighthouses	forests	0	B	1.13315296173096	f	1	lighthouses	forests	0
36	10	lighthouses	mountains	canyons	0	A	1.83735680580139	f	1	mountains	canyons	0
36	11	forests	waterfalls	mountains	1	A	1.48198986053467	f	0	mountains	waterfalls	0
37	0	bridges	waterfalls	deserts	1	B	1.78298711776733	j	1	deserts	waterfalls	1
37	1	waterfalls	bridges	parks	0	A	3.00170612335205	f	1	bridges	parks	1
37	2	canyons	deserts	marshes	0	B	1.62353897094727	f	1	deserts	marshes	1
37	3	parks	marshes	waterfalls	1	B	2.13911080360413	j	1	waterfalls	marshes	1
37	4	deserts	canyons	bridges	1	A	2.96232175827026	j	1	bridges	canyons	1
37	5	marshes	parks	canyons	0	A	1.74936890602112	f	1	parks	canyons	1
37	6	parks	marshes	waterfalls	1	B	2.67075681686401	j	1	waterfalls	marshes	1
37	7	marshes	parks	canyons	0	A	1.84447693824768	f	1	parks	canyons	1
37	8	bridges	waterfalls	deserts	1	B	2.365394115448	j	1	deserts	waterfalls	1
37	9	canyons	deserts	marshes	1	B	1.95268821716309	j	1	marshes	deserts	1
37	10	deserts	canyons	bridges	0	A	1.06736898422241	f	1	canyons	bridges	1
37	11	waterfalls	bridges	parks	0	A	2.84377503395081	f	1	bridges	parks	1
38	0	lakes	lighthouses	bridges	1	B	2.47803807258606	f	0	bridges	lighthouses	1
38	1	beaches	marshes	lighthouses	1	B	2.28054594993591	f	0	lighthouses	marshes	1
38	2	bridges	mountains	lakes	1	A	1.65716576576233	f	0	lakes	mountains	1
38	3	mountains	bridges	marshes	0	B	2.72136783599854	j	0	bridges	marshes	1
38	4	lighthouses	lakes	beaches	1	A	3.72512888908386	f	0	beaches	lakes	1
38	5	marshes	beaches	mountains	0	A	1.85334300994873	j	0	beaches	mountains	1
38	6	lighthouses	lakes	beaches	1	A	1.51372480392456	f	0	beaches	lakes	1
38	7	marshes	beaches	mountains	0	A	1.34771990776062	j	0	beaches	mountains	1
38	8	lakes	lighthouses	bridges	0	B	2.04590010643005	j	0	lighthouses	bridges	1
38	9	mountains	bridges	marshes	1	B	1.41888403892517	f	0	marshes	bridges	1
38	10	bridges	mountains	lakes	0	A	1.33002901077271	j	0	mountains	lakes	1
38	11	beaches	marshes	lighthouses	0	B	1.48689198493958	j	0	marshes	lighthouses	1
39	0	deserts	marshes	waterfalls	0	B	3.08834099769592	j	0	marshes	waterfalls	0
39	1	waterfalls	bridges	deserts	0	A	1.86676788330078	f	1	bridges	deserts	0
39	2	marshes	deserts	canyons	1	A	2.89456701278687	f	0	canyons	deserts	0
39	3	canyons	lighthouses	marshes	1	B	2.0582218170166	f	0	marshes	lighthouses	0
39	4	lighthouses	canyons	bridges	0	A	1.90508770942688	j	0	canyons	bridges	0
39	5	bridges	waterfalls	lighthouses	1	B	3.01131796836853	j	1	lighthouses	waterfalls	0
39	6	bridges	waterfalls	lighthouses	0	B	2.5894501209259	f	1	waterfalls	lighthouses	0
39	7	waterfalls	bridges	deserts	1	A	4.16212105751038	j	1	deserts	bridges	0
39	8	deserts	marshes	waterfalls	1	B	2.78748488426208	j	1	waterfalls	marshes	0
39	9	lighthouses	canyons	bridges	1	A	1.69465613365173	f	0	bridges	canyons	0
39	10	canyons	lighthouses	marshes	0	B	4.12463212013245	j	0	lighthouses	marshes	0
39	11	marshes	deserts	canyons	0	A	3.33796906471252	j	0	deserts	canyons	0
40	0	parks	waterfalls	bridges	0	A	4.26603245735168	f	1	waterfalls	bridges	1
40	1	fields	canyons	waterfalls	0	A	3.39434933662415	j	0	canyons	waterfalls	1
40	2	bridges	beaches	parks	1	B	3.3655104637146	f	0	parks	beaches	1
40	3	beaches	bridges	canyons	1	A	2.5795156955719	j	1	canyons	bridges	1
40	4	waterfalls	parks	fields	0	B	1.49188876152039	j	0	parks	fields	1
40	5	canyons	fields	beaches	1	B	2.3241114616394	j	1	beaches	fields	1
40	6	beaches	bridges	canyons	1	A	2.28299474716187	j	1	canyons	bridges	1
40	7	fields	canyons	waterfalls	0	A	1.30883359909058	j	0	canyons	waterfalls	1
40	8	waterfalls	parks	fields	0	B	3.08328151702881	j	0	parks	fields	1
40	9	canyons	fields	beaches	1	B	2.58618378639221	f	0	beaches	fields	1
40	10	bridges	beaches	parks	0	B	0.975938320159912	j	0	beaches	parks	1
40	11	parks	waterfalls	bridges	1	A	1.7899227142334	j	1	bridges	waterfalls	1
41	0	beaches	fields	forests	1	A	3.25148797035217	j	1	forests	fields	0
41	1	forests	lakes	beaches	1	B	4.17343306541443	j	1	beaches	lakes	0
41	2	lakes	forests	deserts	0	A	2.21094012260437	j	0	forests	deserts	0
41	3	deserts	mountains	lakes	1	B	4.17583584785461	j	1	lakes	mountains	0
41	4	mountains	deserts	fields	0	A	4.16247797012329	j	0	deserts	fields	0
41	5	fields	beaches	mountains	1	B	3.89493489265442	j	1	mountains	beaches	0
41	6	forests	lakes	beaches	0	B	2.81561684608459	f	1	lakes	beaches	0
41	7	fields	beaches	mountains	1	B	-1.0465681552887	f	0	mountains	beaches	0
41	8	deserts	mountains	lakes	0	B	0.000680923461914062	j	0	mountains	lakes	0
41	9	lakes	forests	deserts	0	A	2.2757580280304	j	0	forests	deserts	0
41	10	mountains	deserts	fields	0	A	1.59397101402283	j	0	deserts	fields	0
41	11	beaches	fields	forests	1	A	0.882930040359497	f	0	forests	fields	0
42	0	mountains	parks	waterfalls	0	B	2.16313099861145	j	0	parks	waterfalls	1
42	1	canyons	deserts	lakes	1	A	2.25901699066162	j	1	lakes	deserts	1
42	2	parks	mountains	deserts	1	A	3.27888512611389	j	1	deserts	mountains	1
42	3	lakes	waterfalls	canyons	0	B	1.91163301467896	f	1	waterfalls	canyons	1
42	4	waterfalls	lakes	mountains	1	A	2.57713794708252	f	0	mountains	lakes	1
42	5	deserts	canyons	parks	0	B	2.72798490524292	j	0	canyons	parks	1
42	6	deserts	canyons	parks	1	B	1.84984803199768	j	1	parks	canyons	1
42	7	lakes	waterfalls	canyons	0	B	1.30522894859314	f	1	waterfalls	canyons	1
42	8	waterfalls	lakes	mountains	0	A	1.38792991638184	j	0	lakes	mountains	1
42	9	mountains	parks	waterfalls	0	B	1.69326996803284	j	0	parks	waterfalls	1
42	10	canyons	deserts	lakes	1	A	1.15308403968811	j	1	lakes	deserts	1
42	11	parks	mountains	deserts	1	A	1.18920803070068	f	0	deserts	mountains	1
43	0	beaches	lakes	lighthouses	1	B	3.55853295326233	f	0	lighthouses	lakes	1
43	1	marshes	deserts	lakes	1	B	4.77697587013245	f	0	lakes	deserts	1
43	2	lakes	beaches	marshes	1	A	3.63054490089417	j	1	marshes	beaches	1
43	3	forests	lighthouses	deserts	0	B	3.98163199424744	j	0	lighthouses	deserts	1
43	4	lighthouses	forests	beaches	0	A	2.4893000125885	j	0	forests	beaches	1
43	5	deserts	marshes	forests	1	A	-1.03986597061157	j	1	forests	marshes	1
43	6	marshes	deserts	lakes	0	B	1.49814486503601	f	1	deserts	lakes	1
43	7	forests	lighthouses	deserts	1	B	1.85410475730896	f	0	deserts	lighthouses	1
43	8	deserts	marshes	forests	0	A	1.57766103744507	j	0	marshes	forests	1
43	9	lakes	beaches	marshes	0	A	2.07399463653564	f	1	beaches	marshes	1
43	10	beaches	lakes	lighthouses	1	B	2.23397493362427	f	0	lighthouses	lakes	1
43	11	lighthouses	forests	beaches	0	A	0.959563970565796	j	0	forests	beaches	1
44	0	canyons	forests	parks	1	A	3.67215895652771	j	1	parks	forests	0
44	1	forests	canyons	lakes	1	B	1.98713779449463	f	0	lakes	canyons	0
44	2	parks	bridges	canyons	1	B	2.00708889961243	j	1	canyons	bridges	0
44	3	lakes	beaches	forests	1	A	1.41588997840881	f	0	forests	beaches	0
44	4	beaches	lakes	bridges	0	B	1.30687308311462	f	1	lakes	bridges	0
44	5	bridges	parks	beaches	0	A	1.27659702301025	f	1	parks	beaches	0
44	6	parks	bridges	canyons	1	B	0.977568864822388	j	1	canyons	bridges	0
44	7	beaches	lakes	bridges	0	B	1.26168870925903	f	1	lakes	bridges	0
44	8	lakes	beaches	forests	0	A	1.70659708976746	j	0	beaches	forests	0
44	9	canyons	forests	parks	1	A	1.53265786170959	j	1	parks	forests	0
44	10	bridges	parks	beaches	0	A	1.737389087677	f	1	parks	beaches	0
44	11	forests	canyons	lakes	0	B	1.36232590675354	f	1	canyons	lakes	0
45	0	deserts	waterfalls	parks	0	A	NaN	MISSING	NaN	waterfalls	parks	0
45	1	beaches	parks	lakes	1	A	2.29540109634399	f	0	lakes	parks	0
45	2	waterfalls	deserts	fields	0	B	3.2206768989563	f	1	deserts	fields	0
45	3	fields	lakes	waterfalls	0	A	2.76801490783691	f	1	lakes	waterfalls	0
45	4	lakes	fields	beaches	1	B	1.59978580474854	f	0	beaches	fields	0
45	5	parks	beaches	deserts	0	B	3.90190100669861	j	0	beaches	deserts	0
45	6	beaches	parks	lakes	1	A	2.8457658290863	f	0	lakes	parks	0
45	7	fields	lakes	waterfalls	1	A	3.06026411056519	j	1	waterfalls	lakes	0
45	8	waterfalls	deserts	fields	0	B	2.0313549041748	j	0	deserts	fields	0
45	9	parks	beaches	deserts	0	B	2.78444814682007	j	0	beaches	deserts	0
45	10	lakes	fields	beaches	1	B	3.04985189437866	f	0	beaches	fields	0
45	11	deserts	waterfalls	parks	1	A	2.66645097732544	f	0	parks	waterfalls	0
46	0	lighthouses	parks	forests	0	B	2.27837085723877	f	1	parks	forests	1
46	1	mountains	fields	marshes	1	A	3.11777091026306	j	1	marshes	fields	1
46	2	forests	marshes	lighthouses	1	A	2.55316877365112	j	1	lighthouses	marshes	1
46	3	marshes	forests	mountains	0	B	2.59419178962708	f	1	forests	mountains	1
46	4	parks	lighthouses	fields	0	A	1.94312310218811	f	1	lighthouses	fields	1
46	5	fields	mountains	parks	0	B	1.8528687953949	j	0	mountains	parks	1
46	6	lighthouses	parks	forests	1	B	1.20001697540283	j	1	forests	parks	1
46	7	forests	marshes	lighthouses	1	A	1.61972188949585	j	1	lighthouses	marshes	1
46	8	fields	mountains	parks	0	B	1.86826705932617	f	1	mountains	parks	1
46	9	parks	lighthouses	fields	0	A	1.93797016143799	f	1	lighthouses	fields	1
46	10	marshes	forests	mountains	1	B	1.04406189918518	j	1	mountains	forests	1
46	11	mountains	fields	marshes	1	A	2.00318789482117	f	0	marshes	fields	1
47	0	forests	marshes	waterfalls	1	A	3.05715608596802	j	1	waterfalls	marshes	1
47	1	waterfalls	mountains	forests	1	B	2.3217990398407	j	1	forests	mountains	1
47	2	mountains	waterfalls	lighthouses	0	A	2.66703486442566	f	1	waterfalls	lighthouses	1
47	3	fields	lighthouses	marshes	0	A	1.53374695777893	f	1	lighthouses	marshes	1
47	4	marshes	forests	fields	0	B	1.66146802902222	f	1	forests	fields	1
47	5	lighthouses	fields	mountains	1	B	1.66598081588745	f	0	mountains	fields	1
47	6	forests	marshes	waterfalls	1	A	1.97750902175903	j	1	waterfalls	marshes	1
47	7	lighthouses	fields	mountains	1	B	2.20846009254456	j	1	mountains	fields	1
47	8	marshes	forests	fields	0	B	1.11627292633057	f	1	forests	fields	1
47	9	fields	lighthouses	marshes	1	A	2.83700609207153	j	1	marshes	lighthouses	1
47	10	waterfalls	mountains	forests	0	B	1.37331509590149	f	1	mountains	forests	1
47	11	mountains	waterfalls	lighthouses	0	A	1.86154222488403	f	1	waterfalls	lighthouses	1
48	0	lighthouses	canyons	bridges	1	B	4.09197592735291	f	0	bridges	canyons	0
48	1	fields	bridges	forests	1	B	3.66886496543884	f	0	forests	bridges	0
48	2	mountains	forests	canyons	0	B	3.3917031288147	j	0	forests	canyons	0
48	3	canyons	lighthouses	mountains	0	A	3.51748704910278	j	0	lighthouses	mountains	0
48	4	bridges	fields	lighthouses	1	A	2.95630884170532	j	1	lighthouses	fields	0
48	5	forests	mountains	fields	0	A	2.63190412521362	j	0	mountains	fields	0
48	6	mountains	forests	canyons	1	B	3.19293808937073	f	0	canyons	forests	0
48	7	fields	bridges	forests	1	B	4.54650688171387	j	1	forests	bridges	0
48	8	forests	mountains	fields	0	A	-1.04688215255737	j	0	mountains	fields	0
48	9	bridges	fields	lighthouses	1	A	2.57928586006165	f	0	lighthouses	fields	0
48	10	lighthouses	canyons	bridges	0	B	2.54117488861084	j	0	canyons	bridges	0
48	11	canyons	lighthouses	mountains	0	A	1.99398469924927	j	0	lighthouses	mountains	0
49	0	waterfalls	deserts	lakes	0	A	3.72762250900269	f	1	deserts	lakes	0
49	1	parks	beaches	fields	1	B	3.19738578796387	f	0	fields	beaches	0
49	2	deserts	waterfalls	beaches	0	B	2.01444387435913	f	1	waterfalls	beaches	0
49	3	fields	lakes	parks	1	A	1.9277880191803	j	1	parks	lakes	0
49	4	beaches	parks	deserts	1	A	2.63693809509277	f	0	deserts	parks	0
49	5	lakes	fields	waterfalls	0	B	3.12941813468933	f	1	fields	waterfalls	0
49	6	lakes	fields	waterfalls	0	B	1.57819390296936	f	1	fields	waterfalls	0
49	7	waterfalls	deserts	lakes	0	A	3.28504800796509	j	0	deserts	lakes	0
49	8	fields	lakes	parks	1	A	2.17913293838501	f	0	parks	lakes	0
49	9	beaches	parks	deserts	0	A	1.16645288467407	j	0	parks	deserts	0
49	10	deserts	waterfalls	beaches	1	B	1.33294892311096	f	0	beaches	waterfalls	0
49	11	parks	beaches	fields	1	B	1.97695708274841	f	0	fields	beaches	0
50	0	bridges	lighthouses	canyons	1	B	1.89021897315979	j	1	canyons	lighthouses	1
50	1	parks	waterfalls	lighthouses	0	B	1.82613801956177	f	1	waterfalls	lighthouses	1
50	2	deserts	canyons	waterfalls	1	B	1.57987689971924	j	1	waterfalls	canyons	1
50	3	lighthouses	bridges	parks	0	A	2.11517381668091	f	1	bridges	parks	1
50	4	canyons	deserts	bridges	0	A	2.97725892066956	f	1	deserts	bridges	1
50	5	waterfalls	parks	deserts	0	A	2.36573910713196	j	0	parks	deserts	1
50	6	deserts	canyons	waterfalls	0	B	2.56395816802979	f	1	canyons	waterfalls	1
50	7	waterfalls	parks	deserts	0	A	2.60868692398071	f	1	parks	deserts	1
50	8	bridges	lighthouses	canyons	1	B	2.48996806144714	j	1	canyons	lighthouses	1
50	9	lighthouses	bridges	parks	1	A	2.61964106559753	j	1	parks	bridges	1
50	10	canyons	deserts	bridges	1	A	2.52201581001282	j	1	bridges	deserts	1
50	11	parks	waterfalls	lighthouses	1	B	-1.04053092002869	j	1	lighthouses	waterfalls	1
51	0	marshes	deserts	canyons	0	A	NaN	MISSING	NaN	deserts	canyons	0
51	1	fields	canyons	bridges	1	A	2.23303508758545	f	0	bridges	canyons	0
51	2	waterfalls	bridges	deserts	0	A	1.57714986801147	f	1	bridges	deserts	0
51	3	canyons	fields	marshes	0	B	2.15848469734192	j	0	fields	marshes	0
51	4	deserts	marshes	waterfalls	1	B	2.40618896484375	f	0	waterfalls	marshes	0
51	5	bridges	waterfalls	fields	1	B	1.68632078170776	f	0	fields	waterfalls	0
51	6	canyons	fields	marshes	1	B	2.02222371101379	j	1	marshes	fields	0
51	7	waterfalls	bridges	deserts	1	A	2.36421489715576	j	1	deserts	bridges	0
51	8	deserts	marshes	waterfalls	0	B	3.49960875511169	j	0	marshes	waterfalls	0
51	9	bridges	waterfalls	fields	0	B	3.90073394775391	j	0	waterfalls	fields	0
51	10	fields	canyons	bridges	1	A	1.25757169723511	f	0	bridges	canyons	0
51	11	marshes	deserts	canyons	0	A	3.23527193069458	j	0	deserts	canyons	0
52	0	mountains	lighthouses	parks	1	A	NaN	MISSING	NaN	parks	lighthouses	0
52	1	fields	deserts	lakes	0	B	NaN	MISSING	NaN	deserts	lakes	0
52	2	deserts	fields	lighthouses	0	A	3.01482009887695	f	1	fields	lighthouses	0
52	3	lakes	parks	fields	0	A	2.03789496421814	j	0	parks	fields	0
52	4	lighthouses	mountains	deserts	1	B	2.08887696266174	f	0	deserts	mountains	0
52	5	parks	lakes	mountains	0	B	3.75725913047791	f	1	lakes	mountains	0
52	6	lakes	parks	fields	1	A	1.75890588760376	f	0	fields	parks	0
52	7	deserts	fields	lighthouses	1	A	1.09624695777893	j	1	lighthouses	fields	0
52	8	parks	lakes	mountains	1	B	1.7363429069519	f	0	mountains	lakes	0
52	9	fields	deserts	lakes	1	B	1.58425712585449	j	1	lakes	deserts	0
52	10	lighthouses	mountains	deserts	0	B	1.4571647644043	j	0	mountains	deserts	0
52	11	mountains	lighthouses	parks	0	A	1.06099581718445	f	1	lighthouses	parks	0
53	0	bridges	parks	lakes	0	B	1.76166796684265	j	0	parks	lakes	0
53	1	lighthouses	fields	parks	0	B	3.10906600952148	f	1	fields	parks	0
53	2	fields	lighthouses	waterfalls	1	A	1.86599087715149	j	1	waterfalls	lighthouses	0
53	3	waterfalls	lakes	fields	1	B	1.17064690589905	j	1	fields	lakes	0
53	4	lakes	waterfalls	bridges	1	A	1.64262199401855	f	0	bridges	waterfalls	0
53	5	parks	bridges	lighthouses	1	A	2.65084719657898	f	0	lighthouses	bridges	0
53	6	bridges	parks	lakes	1	B	1.49782872200012	f	0	lakes	parks	0
53	7	lakes	waterfalls	bridges	0	A	1.18080997467041	j	0	waterfalls	bridges	0
53	8	lighthouses	fields	parks	0	B	2.74913692474365	f	1	fields	parks	0
53	9	fields	lighthouses	waterfalls	1	A	2.72447896003723	j	1	waterfalls	lighthouses	0
53	10	waterfalls	lakes	fields	0	B	1.76845288276672	f	1	lakes	fields	0
53	11	parks	bridges	lighthouses	0	A	3.23493909835815	f	1	bridges	lighthouses	0
54	0	fields	lakes	deserts	0	B	1.83636498451233	f	1	lakes	deserts	1
54	1	lakes	fields	lighthouses	0	A	2.04445815086365	f	1	fields	lighthouses	1
54	2	lighthouses	bridges	lakes	0	B	2.41031289100647	f	1	bridges	lakes	1
54	3	canyons	deserts	bridges	1	B	1.18595886230469	j	1	bridges	deserts	1
54	4	deserts	canyons	fields	1	A	0.854393005371094	j	1	fields	canyons	1
54	5	bridges	lighthouses	canyons	1	A	2.1316978931427	j	1	canyons	lighthouses	1
54	6	lighthouses	bridges	lakes	1	B	2.04666209220886	f	0	lakes	bridges	1
54	7	canyons	deserts	bridges	1	B	0.822628021240234	j	1	bridges	deserts	1
54	8	fields	lakes	deserts	0	B	2.88336086273193	f	1	lakes	deserts	1
54	9	deserts	canyons	fields	0	A	0.96016001701355	f	1	canyons	fields	1
54	10	lakes	fields	lighthouses	0	A	-1.0375030040741	f	1	fields	lighthouses	1
54	11	bridges	lighthouses	canyons	1	A	3.11735200881958	j	1	canyons	lighthouses	1
55	0	forests	marshes	parks	1	B	NaN	MISSING	NaN	parks	marshes	1
55	1	canyons	lakes	mountains	0	A	2.51831293106079	j	0	lakes	mountains	1
55	2	parks	mountains	forests	0	A	2.91392087936401	j	0	mountains	forests	1
55	3	lakes	canyons	marshes	1	B	4.1249737739563	f	0	marshes	canyons	1
55	4	mountains	parks	canyons	1	B	2.31624603271484	f	0	canyons	parks	1
55	5	marshes	forests	lakes	1	A	2.82149004936218	f	0	lakes	forests	1
55	6	canyons	lakes	mountains	0	A	2.44245505332947	j	0	lakes	mountains	1
55	7	forests	marshes	parks	0	B	2.11318922042847	j	0	marshes	parks	1
55	8	mountains	parks	canyons	0	B	0.000761032104492188	f	1	parks	canyons	1
55	9	lakes	canyons	marshes	1	B	2.07742094993591	f	0	marshes	canyons	1
55	10	parks	mountains	forests	0	A	2.24150586128235	j	0	mountains	forests	1
55	11	marshes	forests	lakes	1	A	1.87502598762512	j	1	lakes	forests	1
56	0	forests	mountains	beaches	0	A	2.4685595035553	f	1	mountains	beaches	0
56	1	beaches	bridges	forests	0	B	3.29201650619507	f	1	bridges	forests	0
56	2	bridges	beaches	fields	1	A	-1.04126644134521	f	0	fields	beaches	0
56	3	marshes	fields	mountains	0	A	2.32285976409912	j	0	fields	mountains	0
56	4	fields	marshes	bridges	0	B	-1.04377818107605	j	0	marshes	bridges	0
56	5	mountains	forests	marshes	1	B	2.20135879516602	j	1	marshes	forests	0
56	6	beaches	bridges	forests	1	B	-1.03193521499634	j	1	forests	bridges	0
56	7	marshes	fields	mountains	1	A	1.3029317855835	f	0	mountains	fields	0
56	8	fields	marshes	bridges	0	B	3.57851386070251	j	0	marshes	bridges	0
56	9	bridges	beaches	fields	0	A	2.80962681770325	j	0	beaches	fields	0
56	10	forests	mountains	beaches	1	A	1.8142786026001	j	1	beaches	mountains	0
56	11	mountains	forests	marshes	1	B	2.03043246269226	j	1	marshes	forests	0
57	0	marshes	canyons	forests	0	B	NaN	MISSING	NaN	canyons	forests	0
57	1	beaches	parks	canyons	1	B	2.98976302146912	f	0	canyons	parks	0
57	2	parks	beaches	mountains	1	A	4.18521928787231	j	1	mountains	beaches	0
57	3	mountains	forests	parks	0	B	2.79302620887756	f	1	forests	parks	0
57	4	forests	mountains	marshes	1	A	1.9156551361084	f	0	marshes	mountains	0
57	5	canyons	marshes	beaches	0	A	2.71999192237854	j	0	marshes	beaches	0
57	6	beaches	parks	canyons	0	B	2.37106132507324	f	1	parks	canyons	0
57	7	parks	beaches	mountains	1	A	2.50639796257019	j	1	mountains	beaches	0
57	8	canyons	marshes	beaches	1	A	2.21531748771667	f	0	beaches	marshes	0
57	9	marshes	canyons	forests	1	B	1.18320369720459	f	0	forests	canyons	0
57	10	mountains	forests	parks	0	B	1.08993768692017	f	1	forests	parks	0
57	11	forests	mountains	marshes	0	A	1.07229614257812	j	0	mountains	marshes	0
58	0	beaches	lakes	canyons	1	A	2.68507671356201	f	0	canyons	lakes	1
58	1	canyons	forests	beaches	0	B	2.68341255187988	j	0	forests	beaches	1
58	2	lakes	beaches	lighthouses	0	B	2.70520830154419	j	0	beaches	lighthouses	1
58	3	lighthouses	waterfalls	lakes	1	A	2.57323384284973	f	0	lakes	waterfalls	1
58	4	forests	canyons	waterfalls	1	A	2.27376580238342	f	0	waterfalls	canyons	1
58	5	waterfalls	lighthouses	forests	0	B	2.19997072219849	f	1	lighthouses	forests	1
58	6	waterfalls	lighthouses	forests	0	B	2.30175137519836	f	1	lighthouses	forests	1
58	7	beaches	lakes	canyons	0	A	3.68441438674927	f	1	lakes	canyons	1
58	8	forests	canyons	waterfalls	1	A	3.26193189620972	f	0	waterfalls	canyons	1
58	9	lakes	beaches	lighthouses	1	B	3.62564969062805	f	0	lighthouses	beaches	1
58	10	canyons	forests	beaches	0	B	2.1767156124115	j	0	forests	beaches	1
58	11	lighthouses	waterfalls	lakes	1	A	-1.03989839553833	j	1	lakes	waterfalls	1
59	0	marshes	beaches	lighthouses	0	B	4.69874119758606	f	1	beaches	lighthouses	1
59	1	beaches	marshes	forests	0	A	4.71172070503235	f	1	marshes	forests	1
59	2	mountains	forests	waterfalls	0	A	3.88994193077087	f	1	forests	waterfalls	1
59	3	lighthouses	waterfalls	marshes	1	A	3.86362290382385	j	1	marshes	waterfalls	1
59	4	forests	mountains	beaches	1	B	2.64385986328125	j	1	beaches	mountains	1
59	5	waterfalls	lighthouses	mountains	0	B	3.38113689422607	j	0	lighthouses	mountains	1
59	6	waterfalls	lighthouses	mountains	1	B	-1.03535223007202	j	1	mountains	lighthouses	1
59	7	beaches	marshes	forests	1	A	2.4033842086792	j	1	forests	marshes	1
59	8	marshes	beaches	lighthouses	1	B	2.11247897148132	f	0	lighthouses	beaches	1
59	9	lighthouses	waterfalls	marshes	0	A	2.69445562362671	j	0	waterfalls	marshes	1
59	10	mountains	forests	waterfalls	0	A	1.9228527545929	f	1	forests	waterfalls	1
59	11	forests	mountains	beaches	1	B	1.65499758720398	j	1	beaches	mountains	1
60	0	bridges	marshes	beaches	0	A	2.73295164108276	f	1	marshes	beaches	1
60	1	deserts	forests	marshes	1	A	2.51714992523193	f	0	marshes	forests	1
60	2	beaches	mountains	bridges	1	B	2.03550982475281	f	0	bridges	mountains	1
60	3	forests	deserts	mountains	1	B	1.59733986854553	j	1	mountains	deserts	1
60	4	marshes	bridges	deserts	0	B	1.92692351341248	j	0	bridges	deserts	1
60	5	mountains	beaches	forests	0	A	2.50624585151672	j	0	beaches	forests	1
60	6	forests	deserts	mountains	1	B	2.90631628036499	j	1	mountains	deserts	1
60	7	marshes	bridges	deserts	0	B	3.04642939567566	j	0	bridges	deserts	1
60	8	bridges	marshes	beaches	1	A	2.80780553817749	j	1	beaches	marshes	1
60	9	beaches	mountains	bridges	1	B	2.86598968505859	f	0	bridges	mountains	1
60	10	mountains	beaches	forests	0	A	2.34128379821777	j	0	beaches	forests	1
60	11	deserts	forests	marshes	0	A	3.76968479156494	f	1	forests	marshes	1
61	0	beaches	parks	canyons	1	B	NaN	MISSING	NaN	canyons	parks	1
61	1	lighthouses	lakes	mountains	1	A	3.06588363647461	j	1	mountains	lakes	1
61	2	canyons	mountains	beaches	0	A	2.28711104393005	f	1	mountains	beaches	1
61	3	parks	beaches	lakes	0	A	2.14065670967102	j	0	beaches	lakes	1
61	4	lakes	lighthouses	parks	1	B	2.39455389976501	j	1	parks	lighthouses	1
61	5	mountains	canyons	lighthouses	0	B	1.85030889511108	f	1	canyons	lighthouses	1
61	6	canyons	mountains	beaches	0	A	1.84984064102173	f	1	mountains	beaches	1
61	7	lighthouses	lakes	mountains	0	A	1.97267985343933	f	1	lakes	mountains	1
61	8	parks	beaches	lakes	1	A	2.06966209411621	j	1	lakes	beaches	1
61	9	beaches	parks	canyons	1	B	2.35577154159546	j	1	canyons	parks	1
61	10	mountains	canyons	lighthouses	0	B	2.49537086486816	f	1	canyons	lighthouses	1
61	11	lakes	lighthouses	parks	1	B	1.85210561752319	j	1	parks	lighthouses	1
62	0	canyons	mountains	lighthouses	1	B	1.93359470367432	j	1	lighthouses	mountains	0
62	1	lighthouses	forests	canyons	0	A	2.52462863922119	j	0	forests	canyons	0
62	2	forests	lighthouses	fields	1	B	1.23803496360779	f	0	fields	lighthouses	0
62	3	mountains	canyons	lakes	0	A	1.3396999835968	f	1	canyons	lakes	0
62	4	lakes	fields	mountains	1	B	1.11534690856934	j	1	mountains	fields	0
62	5	fields	lakes	forests	0	A	1.33470058441162	f	1	lakes	forests	0
62	6	lighthouses	forests	canyons	1	A	0.998162984848022	f	0	canyons	forests	0
62	7	mountains	canyons	lakes	0	A	0.965820789337158	f	1	canyons	lakes	0
62	8	lakes	fields	mountains	0	B	0.844863891601562	f	1	fields	mountains	0
62	9	canyons	mountains	lighthouses	1	B	0.963178873062134	j	1	lighthouses	mountains	0
62	10	fields	lakes	forests	1	A	0.916859149932861	j	1	forests	lakes	0
62	11	forests	lighthouses	fields	0	B	1.10232758522034	j	0	lighthouses	fields	0
63	0	canyons	forests	bridges	0	B	4.76652765274048	f	1	forests	bridges	1
63	1	parks	marshes	deserts	1	A	-1.0667130947113	f	0	deserts	marshes	1
63	2	bridges	deserts	canyons	0	A	2.86638498306274	f	1	deserts	canyons	1
63	3	deserts	bridges	parks	1	B	3.17871785163879	f	0	parks	bridges	1
63	4	forests	canyons	marshes	0	A	2.29422974586487	j	0	canyons	marshes	1
63	5	marshes	parks	forests	1	B	1.73593163490295	f	0	forests	parks	1
63	6	parks	marshes	deserts	0	A	1.66052389144897	j	0	marshes	deserts	1
63	7	marshes	parks	forests	1	B	1.61032104492188	f	0	forests	parks	1
63	8	canyons	forests	bridges	0	B	2.2973690032959	j	0	forests	bridges	1
63	9	deserts	bridges	parks	1	B	2.91983699798584	f	0	parks	bridges	1
63	10	forests	canyons	marshes	0	A	2.11884760856628	j	0	canyons	marshes	1
63	11	bridges	deserts	canyons	1	A	2.47717952728271	f	0	canyons	deserts	1
64	0	marshes	mountains	fields	0	B	4.51114130020142	j	0	mountains	fields	0
64	1	deserts	parks	mountains	0	B	4.28697943687439	j	0	parks	mountains	0
64	2	fields	canyons	marshes	0	A	4.01029896736145	j	0	canyons	marshes	0
64	3	mountains	marshes	deserts	1	A	3.79510474205017	f	0	deserts	marshes	0
64	4	parks	deserts	canyons	0	A	4.54840397834778	j	0	deserts	canyons	0
64	5	canyons	fields	parks	1	B	2.59917306900024	f	0	parks	fields	0
64	6	deserts	parks	mountains	0	B	2.34839248657227	j	0	parks	mountains	0
64	7	canyons	fields	parks	1	B	3.68102192878723	f	0	parks	fields	0
64	8	parks	deserts	canyons	1	A	2.60004687309265	f	0	canyons	deserts	0
64	9	fields	canyons	marshes	1	A	-1.03322625160217	f	0	marshes	canyons	0
64	10	marshes	mountains	fields	0	B	2.58862090110779	j	0	mountains	fields	0
64	11	mountains	marshes	deserts	1	A	2.38100695610046	f	0	deserts	marshes	0
65	0	parks	canyons	deserts	1	B	2.15932273864746	f	0	deserts	canyons	1
65	1	forests	deserts	bridges	0	B	2.1633620262146	f	1	deserts	bridges	1
65	2	deserts	forests	parks	1	A	1.97747087478638	f	0	parks	forests	1
65	3	beaches	bridges	canyons	1	B	1.54175090789795	j	1	canyons	bridges	1
65	4	canyons	parks	beaches	1	A	1.78252506256104	f	0	beaches	parks	1
65	5	bridges	beaches	forests	1	A	1.52650094032288	j	1	forests	beaches	1
65	6	bridges	beaches	forests	0	A	1.12123465538025	f	1	beaches	forests	1
65	7	canyons	parks	beaches	0	A	1.57321786880493	j	0	parks	beaches	1
65	8	parks	canyons	deserts	0	B	1.45237946510315	j	0	canyons	deserts	1
65	9	beaches	bridges	canyons	1	B	1.29218363761902	j	1	canyons	bridges	1
65	10	deserts	forests	parks	0	A	1.67078280448914	j	0	forests	parks	1
65	11	forests	deserts	bridges	0	B	1.80318999290466	j	0	deserts	bridges	1
66	0	forests	lighthouses	beaches	0	A	2.33047389984131	j	0	lighthouses	beaches	1
66	1	bridges	waterfalls	lighthouses	1	A	2.60944724082947	f	0	lighthouses	waterfalls	1
66	2	lighthouses	forests	bridges	0	B	3.17561650276184	j	0	forests	bridges	1
66	3	beaches	lakes	forests	1	B	3.96807026863098	f	0	forests	lakes	1
66	4	waterfalls	bridges	lakes	1	B	4.00043296813965	f	0	lakes	bridges	1
66	5	lakes	beaches	waterfalls	0	A	2.58735179901123	j	0	beaches	waterfalls	1
66	6	forests	lighthouses	beaches	0	A	-1.04591965675354	j	0	lighthouses	beaches	1
66	7	beaches	lakes	forests	0	B	1.61936736106873	f	1	lakes	forests	1
66	8	lighthouses	forests	bridges	1	B	2.2166919708252	f	0	bridges	forests	1
66	9	lakes	beaches	waterfalls	1	A	1.38968873023987	f	0	waterfalls	beaches	1
66	10	bridges	waterfalls	lighthouses	0	A	2.382164478302	j	0	waterfalls	lighthouses	1
66	11	waterfalls	bridges	lakes	1	B	3.9413640499115	j	1	lakes	bridges	1
67	0	fields	lakes	mountains	1	B	4.5485987663269	f	0	mountains	lakes	0
67	1	mountains	lighthouses	fields	0	A	2.83489751815796	j	0	lighthouses	fields	0
67	2	lighthouses	mountains	canyons	1	B	2.936687707901	j	1	canyons	mountains	0
67	3	canyons	deserts	lighthouses	1	A	2.42242956161499	j	1	lighthouses	deserts	0
67	4	lakes	fields	deserts	1	A	2.75396656990051	j	1	deserts	fields	0
67	5	deserts	canyons	lakes	1	B	2.3669159412384	j	1	lakes	canyons	0
67	6	lighthouses	mountains	canyons	1	B	4.74899005889893	j	1	canyons	mountains	0
67	7	canyons	deserts	lighthouses	0	A	2.68802881240845	f	1	deserts	lighthouses	0
67	8	fields	lakes	mountains	0	B	2.43591141700745	f	1	lakes	mountains	0
67	9	deserts	canyons	lakes	0	B	3.57415223121643	f	1	canyons	lakes	0
67	10	mountains	lighthouses	fields	0	A	2.15262055397034	j	0	lighthouses	fields	0
67	11	lakes	fields	deserts	0	A	2.2547664642334	f	1	fields	deserts	0
68	0	bridges	waterfalls	lighthouses	0	B	2.75562381744385	f	1	waterfalls	lighthouses	1
68	1	marshes	fields	lakes	1	A	2.91699457168579	j	1	lakes	fields	1
68	2	lakes	lighthouses	marshes	0	B	-1.06627869606018	j	0	lighthouses	marshes	1
68	3	lighthouses	lakes	bridges	1	A	2.23112463951111	j	1	bridges	lakes	1
68	4	waterfalls	bridges	fields	1	A	2.83813810348511	f	0	fields	bridges	1
68	5	fields	marshes	waterfalls	0	B	1.54469442367554	f	1	marshes	waterfalls	1
68	6	lighthouses	lakes	bridges	1	A	1.26869940757751	j	1	bridges	lakes	1
68	7	marshes	fields	lakes	0	A	1.23023056983948	f	1	fields	lakes	1
68	8	lakes	lighthouses	marshes	1	B	1.1606285572052	j	1	marshes	lighthouses	1
68	9	bridges	waterfalls	lighthouses	0	B	1.06410837173462	j	0	waterfalls	lighthouses	1
68	10	fields	marshes	waterfalls	1	B	1.54545044898987	j	1	waterfalls	marshes	1
68	11	waterfalls	bridges	fields	0	A	1.08295631408691	f	1	bridges	fields	1
69	0	fields	forests	bridges	1	A	3.41947865486145	f	0	bridges	forests	0
69	1	mountains	waterfalls	lakes	0	B	2.50653553009033	f	1	waterfalls	lakes	0
69	2	bridges	lakes	fields	1	B	2.38361382484436	f	0	fields	lakes	0
69	3	lakes	bridges	mountains	0	A	2.20126295089722	f	1	bridges	mountains	0
69	4	forests	fields	waterfalls	0	B	1.69834089279175	j	0	fields	waterfalls	0
69	5	waterfalls	mountains	forests	1	A	1.56943655014038	f	0	forests	mountains	0
69	6	forests	fields	waterfalls	1	B	1.89450573921204	f	0	waterfalls	fields	0
69	7	bridges	lakes	fields	1	B	0.919132947921753	f	0	fields	lakes	0
69	8	lakes	bridges	mountains	0	A	1.40860176086426	f	1	bridges	mountains	0
69	9	mountains	waterfalls	lakes	0	B	1.26158761978149	f	1	waterfalls	lakes	0
69	10	fields	forests	bridges	0	A	1.42235016822815	j	0	forests	bridges	0
69	11	waterfalls	mountains	forests	1	A	1.73029351234436	j	1	forests	mountains	0
71	0	marshes	waterfalls	lighthouses	0	A	3.98918461799622	f	1	waterfalls	lighthouses	0
71	1	deserts	lighthouses	parks	1	A	2.87994766235352	j	1	parks	lighthouses	0
71	2	beaches	parks	waterfalls	0	A	2.88737177848816	f	1	parks	waterfalls	0
71	3	waterfalls	marshes	beaches	0	B	2.72205686569214	f	1	marshes	beaches	0
71	4	lighthouses	deserts	marshes	0	B	1.88755202293396	j	0	deserts	marshes	0
71	5	parks	beaches	deserts	0	B	3.24111175537109	f	1	beaches	deserts	0
71	6	deserts	lighthouses	parks	0	A	2.08270812034607	j	0	lighthouses	parks	0
71	7	marshes	waterfalls	lighthouses	1	A	1.73440623283386	j	1	lighthouses	waterfalls	0
71	8	lighthouses	deserts	marshes	1	B	1.87797927856445	f	0	marshes	deserts	0
71	9	waterfalls	marshes	beaches	1	B	1.98036003112793	j	1	beaches	marshes	0
71	10	parks	beaches	deserts	1	B	1.94070553779602	f	0	deserts	beaches	0
71	11	beaches	parks	waterfalls	1	A	2.84251189231873	f	0	waterfalls	parks	0
72	0	marshes	forests	waterfalls	0	B	3.80836176872253	j	0	forests	waterfalls	1
72	1	waterfalls	mountains	marshes	0	A	3.4184045791626	j	0	mountains	marshes	1
72	2	mountains	waterfalls	beaches	0	B	4.61585974693298	f	1	waterfalls	beaches	1
72	3	parks	beaches	forests	1	B	4.69135594367981	f	0	forests	beaches	1
72	4	beaches	parks	mountains	1	A	2.67203569412231	j	1	mountains	parks	1
72	5	forests	marshes	parks	1	A	4.03446197509766	j	1	parks	marshes	1
72	6	forests	marshes	parks	1	A	4.58118867874146	f	0	parks	marshes	1
72	7	marshes	forests	waterfalls	0	B	4.51992273330688	f	1	forests	waterfalls	1
72	8	parks	beaches	forests	1	B	4.54138708114624	j	1	forests	beaches	1
72	9	waterfalls	mountains	marshes	0	A	2.30929589271545	j	0	mountains	marshes	1
72	10	beaches	parks	mountains	1	A	-1.02393817901611	j	1	mountains	parks	1
72	11	mountains	waterfalls	beaches	0	B	3.00124335289001	f	1	waterfalls	beaches	1
73	0	bridges	parks	canyons	0	B	2.9422767162323	f	1	parks	canyons	0
73	1	lakes	canyons	marshes	1	B	2.31605577468872	f	0	marshes	canyons	0
73	2	parks	bridges	lighthouses	1	A	2.51734304428101	j	1	lighthouses	bridges	0
73	3	lighthouses	marshes	parks	1	B	2.3577892780304	j	1	parks	marshes	0
73	4	marshes	lighthouses	lakes	1	A	3.35089898109436	f	0	lakes	lighthouses	0
73	5	canyons	lakes	bridges	0	A	2.27397489547729	j	0	lakes	bridges	0
73	6	canyons	lakes	bridges	0	A	3.07824969291687	j	0	lakes	bridges	0
73	7	lighthouses	marshes	parks	0	B	2.45265913009644	f	1	marshes	parks	0
73	8	parks	bridges	lighthouses	1	A	2.70662665367126	j	1	lighthouses	bridges	0
73	9	marshes	lighthouses	lakes	0	A	2.09351682662964	j	0	lighthouses	lakes	0
73	10	bridges	parks	canyons	1	B	1.68515014648438	f	0	canyons	parks	0
73	11	lakes	canyons	marshes	0	B	2.09889078140259	j	0	canyons	marshes	0
74	0	bridges	fields	mountains	1	A	3.30777382850647	j	1	mountains	fields	0
74	1	lighthouses	lakes	parks	0	B	2.2231297492981	f	1	lakes	parks	0
74	2	fields	bridges	lakes	0	B	3.34656977653503	j	0	bridges	lakes	0
74	3	mountains	parks	bridges	0	B	4.38928556442261	j	0	parks	bridges	0
74	4	parks	mountains	lighthouses	1	A	-1.04402732849121	j	1	lighthouses	mountains	0
74	5	lakes	lighthouses	fields	1	A	1.51715397834778	f	0	fields	lighthouses	0
74	6	lakes	lighthouses	fields	1	A	1.51654291152954	f	0	fields	lighthouses	0
74	7	fields	bridges	lakes	1	B	2.89593458175659	j	1	lakes	bridges	0
74	8	bridges	fields	mountains	0	A	1.72369599342346	f	1	fields	mountains	0
74	9	parks	mountains	lighthouses	1	A	3.07204484939575	j	1	lighthouses	mountains	0
74	10	mountains	parks	bridges	0	B	3.31835865974426	j	0	parks	bridges	0
74	11	lighthouses	lakes	parks	0	B	2.31785011291504	f	1	lakes	parks	0
75	0	forests	marshes	beaches	0	A	1.21121692657471	f	1	marshes	beaches	1
75	1	marshes	forests	fields	1	B	1.0137050151825	j	1	fields	forests	1
75	2	lighthouses	beaches	bridges	1	A	1.29174780845642	j	1	bridges	beaches	1
75	3	beaches	lighthouses	forests	0	B	1.08242344856262	f	1	lighthouses	forests	1
75	4	bridges	fields	lighthouses	0	B	1.63609576225281	j	0	fields	lighthouses	1
75	5	fields	bridges	marshes	1	A	1.29073691368103	j	1	marshes	bridges	1
75	6	beaches	lighthouses	forests	1	B	1.41653299331665	j	1	forests	lighthouses	1
75	7	forests	marshes	beaches	1	A	0.959839582443237	j	1	beaches	marshes	1
75	8	lighthouses	beaches	bridges	0	A	1.25686693191528	f	1	beaches	bridges	1
75	9	fields	bridges	marshes	1	A	1.0050151348114	f	0	marshes	bridges	1
75	10	bridges	fields	lighthouses	0	B	1.00797128677368	f	1	fields	lighthouses	1
75	11	marshes	forests	fields	0	B	0.871200799942017	f	1	forests	fields	1
76	0	canyons	lighthouses	lakes	0	B	NaN	MISSING	NaN	lighthouses	lakes	0
76	1	beaches	marshes	bridges	1	A	3.16129088401794	f	0	bridges	marshes	0
76	2	bridges	lakes	beaches	1	B	3.15795588493347	j	1	beaches	lakes	0
76	3	marshes	beaches	lighthouses	1	B	2.65404510498047	j	1	lighthouses	beaches	0
76	4	lakes	bridges	canyons	0	A	3.41305088996887	f	1	bridges	canyons	0
76	5	lighthouses	canyons	marshes	0	A	-1.03687429428101	f	1	canyons	marshes	0
76	6	beaches	marshes	bridges	0	A	2.31622695922852	j	0	marshes	bridges	0
76	7	marshes	beaches	lighthouses	1	B	2.95168089866638	j	1	lighthouses	beaches	0
76	8	lakes	bridges	canyons	1	A	1.85972189903259	j	1	canyons	bridges	0
76	9	lighthouses	canyons	marshes	0	A	4.72073006629944	f	1	canyons	marshes	0
76	10	bridges	lakes	beaches	1	B	4.82815289497375	j	1	beaches	lakes	0
76	11	canyons	lighthouses	lakes	0	B	-1.02175521850586	j	0	lighthouses	lakes	0
77	0	deserts	lighthouses	marshes	1	B	2.12080669403076	f	0	marshes	lighthouses	1
77	1	mountains	forests	lakes	1	A	1.49982666969299	j	1	lakes	forests	1
77	2	lighthouses	deserts	forests	1	A	1.96202278137207	f	0	forests	deserts	1
77	3	lakes	marshes	mountains	0	B	2.00103259086609	j	0	marshes	mountains	1
77	4	marshes	lakes	deserts	1	A	2.26300501823425	j	1	deserts	lakes	1
77	5	forests	mountains	lighthouses	1	B	1.19429087638855	j	1	lighthouses	mountains	1
77	6	deserts	lighthouses	marshes	0	B	1.69931888580322	f	1	lighthouses	marshes	1
77	7	lighthouses	deserts	forests	1	A	2.44902181625366	f	0	forests	deserts	1
77	8	lakes	marshes	mountains	0	B	1.00527191162109	f	1	marshes	mountains	1
77	9	mountains	forests	lakes	0	A	2.70226073265076	f	1	forests	lakes	1
77	10	marshes	lakes	deserts	0	A	2.52126169204712	j	0	lakes	deserts	1
77	11	forests	mountains	lighthouses	0	B	0.885751724243164	f	1	mountains	lighthouses	1
78	0	waterfalls	fields	lighthouses	1	A	2.02507305145264	f	0	lighthouses	fields	1
78	1	lighthouses	lakes	waterfalls	0	B	3.3439953327179	j	0	lakes	waterfalls	1
78	2	deserts	mountains	lakes	0	B	2.445720911026	f	1	mountains	lakes	1
78	3	fields	waterfalls	mountains	1	B	4.17757701873779	f	0	mountains	waterfalls	1
78	4	mountains	deserts	fields	0	A	2.1238899230957	j	0	deserts	fields	1
78	5	lakes	lighthouses	deserts	0	A	1.96828961372375	f	1	lighthouses	deserts	1
78	6	lakes	lighthouses	deserts	1	A	1.26247048377991	j	1	deserts	lighthouses	1
78	7	deserts	mountains	lakes	1	B	2.46839594841003	j	1	lakes	mountains	1
78	8	waterfalls	fields	lighthouses	0	A	1.46073937416077	j	0	fields	lighthouses	1
78	9	fields	waterfalls	mountains	1	B	1.15393662452698	f	0	mountains	waterfalls	1
78	10	mountains	deserts	fields	1	A	1.3709979057312	f	0	fields	deserts	1
78	11	lighthouses	lakes	waterfalls	0	B	1.97039031982422	j	0	lakes	waterfalls	1
79	0	parks	forests	deserts	0	A	2.64425110816956	f	1	forests	deserts	0
79	1	marshes	deserts	waterfalls	0	A	2.42322158813477	j	0	deserts	waterfalls	0
79	2	waterfalls	fields	marshes	0	B	2.94356989860535	j	0	fields	marshes	0
79	3	forests	parks	fields	0	B	2.90635251998901	f	1	parks	fields	0
79	4	deserts	marshes	parks	1	B	2.82239270210266	f	0	parks	marshes	0
79	5	fields	waterfalls	forests	0	A	2.97680306434631	j	0	waterfalls	forests	0
79	6	forests	parks	fields	0	B	1.89530611038208	j	0	parks	fields	0
79	7	fields	waterfalls	forests	1	A	3.73000168800354	f	0	forests	waterfalls	0
79	8	marshes	deserts	waterfalls	1	A	3.6825098991394	f	0	waterfalls	deserts	0
79	9	waterfalls	fields	marshes	1	B	1.33718395233154	f	0	marshes	fields	0
79	10	deserts	marshes	parks	1	B	2.8097767829895	f	0	parks	marshes	0
79	11	parks	forests	deserts	1	A	2.52391028404236	j	1	deserts	forests	0
80	0	fields	parks	waterfalls	0	A	2.50521087646484	f	1	parks	waterfalls	1
80	1	canyons	forests	parks	0	A	2.31730103492737	f	1	forests	parks	1
80	2	waterfalls	beaches	fields	0	B	1.84770083427429	f	1	beaches	fields	1
80	3	forests	canyons	beaches	0	B	1.2320568561554	j	0	canyons	beaches	1
80	4	parks	fields	canyons	0	B	2.17836976051331	f	1	fields	canyons	1
80	5	beaches	waterfalls	forests	1	A	2.2231707572937	j	1	forests	waterfalls	1
80	6	fields	parks	waterfalls	1	A	1.84753489494324	f	0	waterfalls	parks	1
80	7	parks	fields	canyons	1	B	1.47426986694336	j	1	canyons	fields	1
80	8	waterfalls	beaches	fields	1	B	1.84368062019348	j	1	fields	beaches	1
80	9	canyons	forests	parks	1	A	1.72432994842529	f	0	parks	forests	1
80	10	beaches	waterfalls	forests	0	A	1.04480600357056	f	1	waterfalls	forests	1
80	11	forests	canyons	beaches	1	B	1.43839693069458	f	0	beaches	canyons	1
81	0	forests	parks	mountains	1	A	4.83260154724121	f	0	mountains	parks	0
81	1	fields	deserts	waterfalls	0	B	4.93990921974182	j	0	deserts	waterfalls	0
81	2	waterfalls	mountains	fields	1	A	3.01103210449219	j	1	fields	mountains	0
81	3	mountains	waterfalls	forests	0	B	2.27979183197021	f	1	waterfalls	forests	0
81	4	parks	forests	deserts	1	B	2.31355214118958	j	1	deserts	forests	0
81	5	deserts	fields	parks	1	A	2.41959404945374	j	1	parks	fields	0
81	6	forests	parks	mountains	0	A	2.62367582321167	f	1	parks	mountains	0
81	7	waterfalls	mountains	fields	1	A	1.81582450866699	j	1	fields	mountains	0
81	8	parks	forests	deserts	0	B	2.42232036590576	f	1	forests	deserts	0
81	9	mountains	waterfalls	forests	0	B	1.39042901992798	f	1	waterfalls	forests	0
81	10	deserts	fields	parks	1	A	2.36564373970032	f	0	parks	fields	0
81	11	fields	deserts	waterfalls	0	B	2.9472496509552	f	1	deserts	waterfalls	0
82	0	parks	deserts	canyons	1	B	NaN	MISSING	NaN	canyons	deserts	0
82	1	beaches	lakes	waterfalls	1	A	2.09487628936768	j	1	waterfalls	lakes	0
82	2	deserts	parks	lakes	0	A	2.62006664276123	f	1	parks	lakes	0
82	3	lakes	beaches	deserts	0	B	1.20262956619263	f	1	beaches	deserts	0
82	4	waterfalls	canyons	beaches	0	B	1.42057871818542	j	0	canyons	beaches	0
82	5	canyons	waterfalls	parks	1	A	1.49694895744324	j	1	parks	waterfalls	0
82	6	waterfalls	canyons	beaches	1	B	1.2359459400177	f	0	beaches	canyons	0
82	7	lakes	beaches	deserts	1	B	0.870666980743408	j	1	deserts	beaches	0
82	8	beaches	lakes	waterfalls	1	A	1.96317791938782	j	1	waterfalls	lakes	0
82	9	deserts	parks	lakes	0	A	1.49415373802185	f	1	parks	lakes	0
82	10	parks	deserts	canyons	0	B	1.30073189735413	f	1	deserts	canyons	0
82	11	canyons	waterfalls	parks	0	A	2.20679807662964	j	0	waterfalls	parks	0
83	0	mountains	marshes	canyons	0	A	4.94517183303833	j	0	marshes	canyons	0
83	1	waterfalls	beaches	marshes	0	A	2.29432702064514	f	1	beaches	marshes	0
83	2	beaches	waterfalls	bridges	0	B	-1.03895616531372	f	1	waterfalls	bridges	0
83	3	marshes	mountains	waterfalls	0	B	2.86312294006348	f	1	mountains	waterfalls	0
83	4	canyons	bridges	mountains	0	B	2.58607792854309	j	0	bridges	mountains	0
83	5	bridges	canyons	beaches	1	A	4.59285569190979	f	0	beaches	canyons	0
83	6	canyons	bridges	mountains	0	B	2.17954683303833	j	0	bridges	mountains	0
83	7	bridges	canyons	beaches	1	A	3.39499282836914	f	0	beaches	canyons	0
83	8	waterfalls	beaches	marshes	1	A	2.51380705833435	j	1	marshes	beaches	0
83	9	marshes	mountains	waterfalls	1	B	2.30273580551147	j	1	waterfalls	mountains	0
83	10	beaches	waterfalls	bridges	1	B	1.76879191398621	j	1	bridges	waterfalls	0
83	11	mountains	marshes	canyons	1	A	2.74111533164978	f	0	canyons	marshes	0
84	0	beaches	bridges	forests	1	B	4.99008417129517	j	1	forests	bridges	1
84	1	canyons	deserts	bridges	0	B	2.53561401367188	j	0	deserts	bridges	1
84	2	forests	mountains	beaches	1	A	2.94535207748413	j	1	beaches	mountains	1
84	3	bridges	beaches	canyons	0	A	3.4660427570343	j	0	beaches	canyons	1
84	4	deserts	canyons	mountains	0	A	3.93141579627991	f	1	canyons	mountains	1
84	5	mountains	forests	deserts	1	B	2.03618001937866	j	1	deserts	forests	1
84	6	deserts	canyons	mountains	1	A	2.5819263458252	f	0	mountains	canyons	1
84	7	forests	mountains	beaches	0	A	2.01166701316833	f	1	mountains	beaches	1
84	8	bridges	beaches	canyons	0	A	3.21564316749573	f	1	beaches	canyons	1
84	9	canyons	deserts	bridges	1	B	2.96705913543701	f	0	bridges	deserts	1
84	10	beaches	bridges	forests	0	B	2.58941125869751	j	0	bridges	forests	1
84	11	mountains	forests	deserts	1	B	3.70518493652344	f	0	deserts	forests	1
85	0	parks	deserts	mountains	1	A	2.95372080802917	f	0	mountains	deserts	1
85	1	bridges	mountains	fields	0	A	1.791499376297	j	0	mountains	fields	1
85	2	fields	lighthouses	bridges	1	B	2.06520462036133	f	0	bridges	lighthouses	1
85	3	lighthouses	fields	deserts	0	A	1.94860601425171	f	1	fields	deserts	1
85	4	deserts	parks	lighthouses	1	B	2.80658292770386	j	1	lighthouses	parks	1
85	5	mountains	bridges	parks	1	B	2.53478479385376	f	0	parks	bridges	1
85	6	lighthouses	fields	deserts	0	A	1.68245387077332	f	1	fields	deserts	1
85	7	parks	deserts	mountains	0	A	1.82620573043823	j	0	deserts	mountains	1
85	8	mountains	bridges	parks	1	B	2.03658962249756	f	0	parks	bridges	1
85	9	deserts	parks	lighthouses	0	B	2.92321181297302	f	1	parks	lighthouses	1
85	10	bridges	mountains	fields	0	A	2.16668176651001	j	0	mountains	fields	1
85	11	fields	lighthouses	bridges	1	B	2.07319164276123	f	0	bridges	lighthouses	1
86	0	deserts	mountains	waterfalls	1	B	2.00270462036133	j	1	waterfalls	mountains	0
86	1	mountains	deserts	fields	0	A	1.98150324821472	f	1	deserts	fields	0
86	2	lakes	fields	beaches	0	A	1.34419012069702	j	0	fields	beaches	0
86	3	waterfalls	beaches	deserts	0	A	1.80488681793213	j	0	beaches	deserts	0
86	4	fields	lakes	mountains	0	B	1.68807363510132	f	1	lakes	mountains	0
86	5	beaches	waterfalls	lakes	0	B	1.80062389373779	f	1	waterfalls	lakes	0
86	6	waterfalls	beaches	deserts	1	A	1.32383108139038	j	1	deserts	beaches	0
86	7	mountains	deserts	fields	1	A	1.60107851028442	f	0	fields	deserts	0
86	8	lakes	fields	beaches	0	A	1.55909013748169	j	0	fields	beaches	0
86	9	deserts	mountains	waterfalls	1	B	1.96723008155823	j	1	waterfalls	mountains	0
86	10	beaches	waterfalls	lakes	1	B	1.74656367301941	f	0	lakes	waterfalls	0
86	11	fields	lakes	mountains	1	B	2.04421496391296	f	0	mountains	lakes	0
87	0	forests	marshes	mountains	0	B	3.26075005531311	f	1	marshes	mountains	0
87	1	deserts	mountains	canyons	0	B	2.64092326164246	j	0	mountains	canyons	0
87	2	lakes	canyons	marshes	0	B	3.40172410011292	j	0	canyons	marshes	0
87	3	canyons	lakes	deserts	1	A	2.70290613174438	f	0	deserts	lakes	0
87	4	mountains	deserts	forests	1	A	2.04988408088684	f	0	forests	deserts	0
87	5	marshes	forests	lakes	1	A	2.86177659034729	f	0	lakes	forests	0
87	6	marshes	forests	lakes	1	A	2.01995992660522	f	0	lakes	forests	0
87	7	mountains	deserts	forests	0	A	1.80836510658264	j	0	deserts	forests	0
87	8	canyons	lakes	deserts	1	A	4.78015971183777	f	0	deserts	lakes	0
87	9	lakes	canyons	marshes	0	B	3.03473138809204	j	0	canyons	marshes	0
87	10	deserts	mountains	canyons	0	B	2.47757482528687	f	1	mountains	canyons	0
87	11	forests	marshes	mountains	1	B	2.95379090309143	f	0	mountains	marshes	0
88	0	parks	lakes	forests	0	A	NaN	MISSING	NaN	lakes	forests	1
88	1	fields	lighthouses	lakes	0	A	2.55443978309631	j	0	lighthouses	lakes	1
88	2	forests	canyons	parks	1	B	2.74226593971252	f	0	parks	canyons	1
88	3	lakes	parks	fields	1	B	2.9958803653717	j	1	fields	parks	1
88	4	lighthouses	fields	canyons	0	B	3.63448309898376	j	0	fields	canyons	1
88	5	canyons	forests	lighthouses	0	A	1.79349899291992	j	0	forests	lighthouses	1
88	6	canyons	forests	lighthouses	1	A	1.04508495330811	f	0	lighthouses	forests	1
88	7	parks	lakes	forests	1	A	1.01983666419983	f	0	forests	lakes	1
88	8	lakes	parks	fields	1	B	4.12015891075134	j	1	fields	parks	1
88	9	lighthouses	fields	canyons	0	B	0.841627836227417	j	0	fields	canyons	1
88	10	fields	lighthouses	lakes	0	A	3.3882577419281	j	0	lighthouses	lakes	1
88	11	forests	canyons	parks	1	B	1.87501382827759	j	1	parks	canyons	1
89	0	bridges	waterfalls	forests	0	A	1.76542115211487	f	1	waterfalls	forests	0
89	1	waterfalls	bridges	beaches	0	B	2.56336522102356	f	1	bridges	beaches	0
89	2	deserts	forests	parks	0	A	1.56552767753601	j	0	forests	parks	0
89	3	forests	deserts	bridges	1	B	2.24281620979309	j	1	bridges	deserts	0
89	4	beaches	parks	waterfalls	1	A	2.38357496261597	f	0	waterfalls	parks	0
89	5	parks	beaches	deserts	0	B	3.03323292732239	j	0	beaches	deserts	0
89	6	beaches	parks	waterfalls	1	A	2.25300979614258	f	0	waterfalls	parks	0
89	7	bridges	waterfalls	forests	1	A	1.20709609985352	j	1	forests	waterfalls	0
89	8	deserts	forests	parks	0	A	1.45022177696228	j	0	forests	parks	0
89	9	forests	deserts	bridges	1	B	1.68124485015869	f	0	bridges	deserts	0
89	10	parks	beaches	deserts	0	B	2.35453319549561	j	0	beaches	deserts	0
89	11	waterfalls	bridges	beaches	1	B	1.59161758422852	j	1	beaches	bridges	0
90	0	parks	beaches	mountains	1	B	3.07447481155396	j	1	mountains	beaches	1
90	1	marshes	mountains	canyons	1	B	4.091952085495	j	1	canyons	mountains	1
90	2	beaches	parks	waterfalls	1	A	3.11555480957031	f	0	waterfalls	parks	1
90	3	canyons	waterfalls	marshes	0	A	2.4659628868103	f	1	waterfalls	marshes	1
90	4	mountains	marshes	parks	0	A	4.11645579338074	f	1	marshes	parks	1
90	5	waterfalls	canyons	beaches	1	B	3.15291595458984	j	1	beaches	canyons	1
90	6	marshes	mountains	canyons	1	B	1.50883102416992	f	0	canyons	mountains	1
90	7	beaches	parks	waterfalls	0	A	4.34301781654358	j	0	parks	waterfalls	1
90	8	canyons	waterfalls	marshes	0	A	0.987657785415649	f	1	waterfalls	marshes	1
90	9	parks	beaches	mountains	0	B	2.14940071105957	f	1	beaches	mountains	1
90	10	mountains	marshes	parks	1	A	-1.0505542755127	f	0	parks	marshes	1
90	11	waterfalls	canyons	beaches	0	B	1.01256489753723	f	1	canyons	beaches	1
91	0	fields	bridges	marshes	1	B	4.18839764595032	j	1	marshes	bridges	0
91	1	beaches	marshes	lakes	0	B	3.38613700866699	j	0	marshes	lakes	0
91	2	marshes	beaches	fields	1	A	2.87503027915955	j	1	fields	beaches	0
91	3	bridges	fields	mountains	1	A	2.95334839820862	j	1	mountains	fields	0
91	4	mountains	lakes	bridges	1	B	3.28938412666321	j	1	bridges	lakes	0
91	5	lakes	mountains	beaches	1	A	3.03010892868042	j	1	beaches	mountains	0
91	6	fields	bridges	marshes	0	B	2.96856498718262	f	1	bridges	marshes	0
91	7	lakes	mountains	beaches	0	A	3.76382184028625	f	1	mountains	beaches	0
91	8	marshes	beaches	fields	0	A	3.95696973800659	j	0	beaches	fields	0
91	9	mountains	lakes	bridges	0	B	2.36208629608154	j	0	lakes	bridges	0
91	10	beaches	marshes	lakes	1	B	3.70114398002625	f	0	lakes	marshes	0
91	11	bridges	fields	mountains	0	A	3.00425624847412	j	0	fields	mountains	0
92	0	beaches	lighthouses	marshes	0	A	2.00520181655884	f	1	lighthouses	marshes	1
92	1	fields	marshes	bridges	0	A	2.13416481018066	j	0	marshes	bridges	1
92	2	bridges	lakes	fields	0	B	1.72985601425171	f	1	lakes	fields	1
92	3	lakes	bridges	lighthouses	1	A	2.72024083137512	j	1	lighthouses	bridges	1
92	4	marshes	fields	beaches	0	B	3.21581292152405	j	0	fields	beaches	1
92	5	lighthouses	beaches	lakes	1	B	1.70611786842346	j	1	lakes	beaches	1
92	6	marshes	fields	beaches	1	B	3.71615886688232	j	1	beaches	fields	1
92	7	beaches	lighthouses	marshes	1	A	2.00659966468811	f	0	marshes	lighthouses	1
92	8	bridges	lakes	fields	1	B	3.7966730594635	j	1	fields	lakes	1
92	9	fields	marshes	bridges	1	A	2.44536018371582	f	0	bridges	marshes	1
92	10	lighthouses	beaches	lakes	0	B	1.31920599937439	f	1	beaches	lakes	1
92	11	lakes	bridges	lighthouses	0	A	1.43346381187439	f	1	bridges	lighthouses	1
93	0	bridges	parks	waterfalls	0	B	NaN	MISSING	NaN	parks	waterfalls	0
93	1	lighthouses	mountains	canyons	1	A	2.18706679344177	f	0	canyons	mountains	0
93	2	mountains	lighthouses	parks	1	B	2.33775401115417	j	1	parks	lighthouses	0
93	3	waterfalls	canyons	bridges	0	A	1.74656987190247	j	0	canyons	bridges	0
93	4	parks	bridges	mountains	0	A	1.97834014892578	f	1	bridges	mountains	0
93	5	canyons	waterfalls	lighthouses	0	B	1.40165495872498	f	1	waterfalls	lighthouses	0
93	6	lighthouses	mountains	canyons	1	A	1.12469387054443	f	0	canyons	mountains	0
93	7	canyons	waterfalls	lighthouses	0	B	1.73103904724121	f	1	waterfalls	lighthouses	0
93	8	waterfalls	canyons	bridges	1	A	1.67847275733948	f	0	bridges	canyons	0
93	9	mountains	lighthouses	parks	1	B	1.2038357257843	j	1	parks	lighthouses	0
93	10	parks	bridges	mountains	0	A	1.26592373847961	f	1	bridges	mountains	0
93	11	bridges	parks	waterfalls	1	B	1.21326684951782	f	0	waterfalls	parks	0
94	0	fields	lighthouses	lakes	0	A	3.05927395820618	f	1	lighthouses	lakes	0
94	1	lighthouses	fields	marshes	1	B	2.66425180435181	j	1	marshes	fields	0
94	2	marshes	parks	lighthouses	1	A	2.76767158508301	f	0	lighthouses	parks	0
94	3	forests	lakes	parks	0	A	2.85400390625	j	0	lakes	parks	0
94	4	lakes	forests	fields	0	B	2.28806209564209	j	0	forests	fields	0
94	5	parks	marshes	forests	0	B	2.03684663772583	j	0	marshes	forests	0
94	6	lighthouses	fields	marshes	0	B	1.76849794387817	j	0	fields	marshes	0
94	7	fields	lighthouses	lakes	1	A	2.08197164535522	f	0	lakes	lighthouses	0
94	8	parks	marshes	forests	0	B	1.43463730812073	j	0	marshes	forests	0
94	9	forests	lakes	parks	1	A	1.56945872306824	f	0	parks	lakes	0
94	10	marshes	parks	lighthouses	1	A	1.68165278434753	f	0	lighthouses	parks	0
94	11	lakes	forests	fields	1	B	1.20140790939331	f	0	fields	forests	0
95	0	marshes	forests	deserts	1	B	1.44406509399414	j	1	deserts	forests	0
95	1	canyons	waterfalls	forests	0	B	1.51040387153625	f	1	waterfalls	forests	0
95	2	waterfalls	canyons	beaches	1	A	1.25059580802917	f	0	beaches	canyons	0
95	3	forests	marshes	canyons	0	A	1.01463055610657	f	1	marshes	canyons	0
95	4	beaches	deserts	waterfalls	1	B	1.37489175796509	f	0	waterfalls	deserts	0
95	5	deserts	beaches	marshes	0	A	1.46735858917236	f	1	beaches	marshes	0
95	6	canyons	waterfalls	forests	0	B	1.72662115097046	j	0	waterfalls	forests	0
95	7	waterfalls	canyons	beaches	1	A	1.67604875564575	f	0	beaches	canyons	0
95	8	deserts	beaches	marshes	0	A	1.3823606967926	f	1	beaches	marshes	0
95	9	beaches	deserts	waterfalls	0	B	1.37309408187866	j	0	deserts	waterfalls	0
95	10	forests	marshes	canyons	1	A	1.37951493263245	j	1	canyons	marshes	0
95	11	marshes	forests	deserts	1	B	0.99183988571167	j	1	deserts	forests	0
96	0	waterfalls	deserts	lighthouses	0	B	4.99796009063721	f	1	deserts	lighthouses	1
96	1	lighthouses	canyons	waterfalls	1	A	2.515704870224	f	0	waterfalls	canyons	1
96	2	forests	bridges	canyons	1	A	1.86018800735474	j	1	canyons	bridges	1
96	3	deserts	waterfalls	bridges	0	A	2.32926964759827	f	1	waterfalls	bridges	1
96	4	canyons	lighthouses	forests	1	B	1.65869283676147	f	0	forests	lighthouses	1
96	5	bridges	forests	deserts	1	B	1.67869973182678	j	1	deserts	forests	1
96	6	waterfalls	deserts	lighthouses	0	B	1.95899677276611	f	1	deserts	lighthouses	1
96	7	canyons	lighthouses	forests	0	B	3.73099446296692	j	0	lighthouses	forests	1
96	8	forests	bridges	canyons	0	A	1.56254601478577	j	0	bridges	canyons	1
96	9	deserts	waterfalls	bridges	0	A	3.29555797576904	f	1	waterfalls	bridges	1
96	10	lighthouses	canyons	waterfalls	1	A	-1.03770351409912	f	0	waterfalls	canyons	1
96	11	bridges	forests	deserts	1	B	1.25540280342102	j	1	deserts	forests	1
98	0	canyons	deserts	forests	1	A	2.35133671760559	j	1	forests	deserts	1
98	1	marshes	forests	mountains	0	A	1.36979198455811	f	1	forests	mountains	1
98	2	lakes	mountains	deserts	0	A	1.77816677093506	f	1	mountains	deserts	1
98	3	mountains	lakes	marshes	1	B	1.87263178825378	j	1	marshes	lakes	1
98	4	forests	marshes	canyons	1	B	1.68280220031738	j	1	canyons	marshes	1
98	5	deserts	canyons	lakes	1	B	1.24863314628601	j	1	lakes	canyons	1
98	6	lakes	mountains	deserts	0	A	1.38761973381042	f	1	mountains	deserts	1
98	7	deserts	canyons	lakes	0	B	1.54044032096863	f	1	canyons	lakes	1
98	8	marshes	forests	mountains	0	A	1.14312481880188	f	1	forests	mountains	1
98	9	mountains	lakes	marshes	0	B	1.75893330574036	f	1	lakes	marshes	1
98	10	forests	marshes	canyons	1	B	2.15779519081116	j	1	canyons	marshes	1
98	11	canyons	deserts	forests	1	A	1.1259138584137	j	1	forests	deserts	1
100	0	forests	canyons	mountains	1	A	1.61129689216614	f	0	mountains	canyons	0
100	1	parks	bridges	canyons	0	A	1.89797687530518	f	1	bridges	canyons	0
100	2	fields	mountains	bridges	1	A	2.7390456199646	j	1	bridges	mountains	0
100	3	canyons	forests	parks	0	B	2.08877182006836	f	1	forests	parks	0
100	4	bridges	parks	fields	0	B	2.49847555160522	j	0	parks	fields	0
100	5	mountains	fields	forests	1	B	1.76849365234375	f	0	forests	fields	0
100	6	parks	bridges	canyons	1	A	3.42191076278687	j	1	canyons	bridges	0
100	7	forests	canyons	mountains	1	A	2.52338051795959	f	0	mountains	canyons	0
100	8	mountains	fields	forests	0	B	2.7709527015686	f	1	fields	forests	0
100	9	bridges	parks	fields	0	B	2.99243831634521	j	0	parks	fields	0
100	10	fields	mountains	bridges	1	A	1.63821029663086	j	1	bridges	mountains	0
100	11	canyons	forests	parks	0	B	3.08488798141479	f	1	forests	parks	0
101	0	parks	marshes	mountains	1	A	3.07877922058105	j	1	mountains	marshes	1
101	1	mountains	forests	parks	0	B	1.76782703399658	f	1	forests	parks	1
101	2	beaches	deserts	marshes	1	A	1.46619081497192	j	1	marshes	deserts	1
101	3	deserts	beaches	forests	1	B	1.11062908172607	j	1	forests	beaches	1
101	4	forests	mountains	deserts	1	A	1.47570562362671	j	1	deserts	mountains	1
101	5	marshes	parks	beaches	0	B	1.33597302436829	j	0	parks	beaches	1
101	6	marshes	parks	beaches	0	B	1.54868388175964	j	0	parks	beaches	1
101	7	forests	mountains	deserts	1	A	1.03169989585876	j	1	deserts	mountains	1
101	8	parks	marshes	mountains	0	A	1.86239576339722	j	0	marshes	mountains	1
101	9	mountains	forests	parks	0	B	1.39149785041809	f	1	forests	parks	1
101	10	deserts	beaches	forests	0	B	0.799272775650024	f	1	beaches	forests	1
101	11	beaches	deserts	marshes	1	A	0.952301979064941	j	1	marshes	deserts	1
103	0	lighthouses	lakes	deserts	0	B	1.59937357902527	f	1	lakes	deserts	1
103	1	waterfalls	deserts	beaches	1	B	0.958148717880249	f	0	beaches	deserts	1
103	2	deserts	waterfalls	lighthouses	1	A	1.44898772239685	j	1	lighthouses	waterfalls	1
103	3	fields	beaches	lakes	0	B	1.29017376899719	j	0	beaches	lakes	1
103	4	beaches	fields	waterfalls	1	A	1.37283444404602	f	0	waterfalls	fields	1
103	5	lakes	lighthouses	fields	0	A	1.54917502403259	f	1	lighthouses	fields	1
103	6	lighthouses	lakes	deserts	0	B	1.24221682548523	f	1	lakes	deserts	1
103	7	lakes	lighthouses	fields	1	A	1.95188927650452	f	0	fields	lighthouses	1
103	8	waterfalls	deserts	beaches	1	B	1.28214478492737	f	0	beaches	deserts	1
103	9	beaches	fields	waterfalls	0	A	0.984834909439087	j	0	fields	waterfalls	1
103	10	deserts	waterfalls	lighthouses	0	A	1.13931369781494	j	0	waterfalls	lighthouses	1
103	11	fields	beaches	lakes	1	B	1.73210668563843	f	0	lakes	beaches	1
104	0	waterfalls	bridges	parks	0	A	2.42768669128418	f	1	bridges	parks	1
104	1	parks	beaches	waterfalls	0	B	-1.08891892433167	f	1	beaches	waterfalls	1
104	2	bridges	waterfalls	mountains	0	B	1.16808080673218	f	1	waterfalls	mountains	1
104	3	beaches	parks	fields	0	A	3.95347857475281	j	0	parks	fields	1
104	4	mountains	fields	bridges	1	A	2.56650805473328	f	0	bridges	fields	1
104	5	fields	mountains	beaches	1	B	-1.06676816940308	f	0	beaches	mountains	1
104	6	parks	beaches	waterfalls	1	B	-7.11666202545166	f	0	waterfalls	beaches	1
104	7	mountains	fields	bridges	1	A	1.63753509521484	f	0	bridges	fields	1
104	8	bridges	waterfalls	mountains	0	B	2.26129388809204	f	1	waterfalls	mountains	1
104	9	beaches	parks	fields	0	A	-1.03864789009094	f	1	parks	fields	1
104	10	fields	mountains	beaches	1	B	-7.08855533599854	f	0	beaches	mountains	1
104	11	waterfalls	bridges	parks	1	A	1.03566288948059	j	1	parks	bridges	1
105	0	lakes	waterfalls	mountains	1	B	3.04378199577332	j	1	mountains	waterfalls	1
105	1	mountains	parks	lakes	0	A	3.2594907283783	f	1	parks	lakes	1
105	2	waterfalls	lakes	marshes	1	A	3.92655396461487	f	0	marshes	lakes	1
105	3	deserts	marshes	parks	0	A	3.56609177589417	j	0	marshes	parks	1
105	4	marshes	deserts	waterfalls	1	B	3.96642398834229	j	1	waterfalls	deserts	1
105	5	parks	mountains	deserts	0	B	3.70090794563293	f	1	mountains	deserts	1
105	6	mountains	parks	lakes	1	A	1.89297342300415	f	0	lakes	parks	1
105	7	marshes	deserts	waterfalls	0	B	2.99956154823303	j	0	deserts	waterfalls	1
105	8	deserts	marshes	parks	0	A	2.21056318283081	j	0	marshes	parks	1
105	9	lakes	waterfalls	mountains	0	B	3.7137439250946	f	1	waterfalls	mountains	1
105	10	waterfalls	lakes	marshes	1	A	2.74271059036255	f	0	marshes	lakes	1
105	11	parks	mountains	deserts	1	B	2.6765353679657	j	1	deserts	mountains	1
106	0	lakes	waterfalls	bridges	0	B	2.00546169281006	j	0	waterfalls	bridges	0
106	1	lighthouses	beaches	canyons	0	A	1.20749258995056	f	1	beaches	canyons	0
106	2	waterfalls	lakes	beaches	1	A	1.48950004577637	j	1	beaches	lakes	0
106	3	canyons	bridges	lighthouses	1	B	2.59820985794067	j	1	lighthouses	bridges	0
106	4	beaches	lighthouses	waterfalls	0	B	1.2552478313446	f	1	lighthouses	waterfalls	0
106	5	bridges	canyons	lakes	1	A	2.14234256744385	f	0	lakes	canyons	0
106	6	bridges	canyons	lakes	1	A	1.23003005981445	f	0	lakes	canyons	0
106	7	waterfalls	lakes	beaches	0	A	1.8563539981842	j	0	lakes	beaches	0
106	8	beaches	lighthouses	waterfalls	1	B	1.3104510307312	f	0	waterfalls	lighthouses	0
106	9	lakes	waterfalls	bridges	0	B	1.83666968345642	j	0	waterfalls	bridges	0
106	10	canyons	bridges	lighthouses	1	B	2.10025072097778	j	1	lighthouses	bridges	0
106	11	lighthouses	beaches	canyons	0	A	1.62830233573914	f	1	beaches	canyons	0
