subid	trial	img	categ	old_new	cond	index	rt	resp	acc	conf_rt	conf_resp	group
1	0	mountains18.jpg	mountains	1	B	311	3.08424377441406	j	1	0.243853807449341	1	0
1	1	parks14.jpg	parks	2	B	NaN	2.48374056816101	k	1	2.43006491661072	3	0
1	2	forests56.jpg	forests	1	X	98	2.85546231269836	k	0	5.73212480545044	3	0
1	3	waterfalls44.jpg	waterfalls	2	A	NaN	2.46241664886475	k	1	2.87606287002563	2	0
1	4	parks13.jpg	parks	2	B	NaN	3.57583355903625	j	0	1.93073058128357	2	0
1	5	lakes31.jpg	lakes	1	X	320	3.36069130897522	k	0	2.46425676345825	2	0
1	6	lakes49.jpg	lakes	1	X	316	1.82093191146851	j	1	2.36896896362305	2	0
1	7	canyons29.jpg	canyons	2	X	NaN	1.84663963317871	k	1	1.55610466003418	2	0
1	8	canyons54.jpg	canyons	1	X	107	1.39258766174316	j	1	1.13894939422607	2	0
1	9	beaches46.jpg	beaches	2	X	NaN	1.39881205558777	k	1	1.10452699661255	3	0
1	10	parks49.jpg	parks	1	B	103	3.17780685424805	k	0	2.27888941764832	3	0
1	11	fields13.jpg	fields	2	A	NaN	2.05566692352295	j	0	1.55133891105652	2	0
1	12	canyons37.jpg	canyons	1	X	214	1.9046642780304	j	1	0.718464374542236	2	0
1	13	marshes40.jpg	marshes	1	X	105	2.54912257194519	k	0	0.901926755905151	2	0
1	14	waterfalls46.jpg	waterfalls	1	A	130	2.4742476940155	k	0	0.646228790283203	2	0
1	15	lakes48.jpg	lakes	2	X	NaN	2.60727667808533	k	1	1.13900899887085	2	0
1	16	marshes30.jpg	marshes	1	X	206	1.05714344978333	j	1	0.787824869155884	2	0
1	17	canyons33.jpg	canyons	2	X	NaN	2.36472773551941	k	1	0.516780614852905	2	0
1	18	deserts27.jpg	deserts	2	X	NaN	1.04186797142029	j	0	1.15713858604431	2	0
1	19	parks6.jpg	parks	1	B	257	2.18259072303772	k	0	1.00194191932678	2	0
1	20	marshes17.jpg	marshes	2	X	NaN	1.45520567893982	j	0	0.624961853027344	2	0
1	21	parks8.jpg	parks	2	B	NaN	1.17891335487366	j	0	0.437975168228149	2	0
1	22	canyons30.jpg	canyons	2	X	NaN	1.39212155342102	k	1	0.874314308166504	1	0
1	23	lighthouses39.jpg	lighthouses	2	B	NaN	2.30212640762329	j	0	0.0447406768798828	1	0
1	24	canyons17.jpg	canyons	1	X	171	2.4798378944397	k	0	0.140830278396606	2	0
1	25	fields55.jpg	fields	2	A	NaN	1.21590328216553	j	0	0.872916698455811	2	0
1	26	marshes18.jpg	marshes	2	X	NaN	2.5095841884613	k	1	0.253241300582886	2	0
1	27	bridges19.jpg	bridges	1	A	112	1.87858462333679	k	0	0.422748327255249	1	0
1	28	deserts56.jpg	deserts	1	X	313	1.13033008575439	j	1	0.763443470001221	4	0
1	29	bridges46.jpg	bridges	2	A	NaN	1.87613868713379	k	1	0.934113502502441	3	0
1	30	parks7.jpg	parks	1	B	280	1.77615261077881	j	1	0.597137689590454	3	0
1	31	parks45.jpg	parks	2	B	NaN	1.33853578567505	k	1	0.619998216629028	3	0
1	32	beaches50.jpg	beaches	1	X	223	1.66649484634399	j	1	0.615657091140747	2	0
1	33	forests48.jpg	forests	1	X	216	1.73234510421753	k	0	0.55463695526123	1	0
1	34	bridges40.jpg	bridges	1	A	116	1.50101590156555	j	1	0.611727952957153	2	0
1	35	fields30.jpg	fields	2	A	NaN	1.28505992889404	k	1	0.439419984817505	2	0
1	36	waterfalls19.jpg	waterfalls	2	A	NaN	1.05950331687927	j	0	0.598094940185547	2	0
1	37	bridges52.jpg	bridges	1	A	108	1.1724328994751	j	1	0.376534700393677	2	0
1	38	deserts37.jpg	deserts	2	X	NaN	1.22315335273743	k	1	0.254203319549561	1	0
1	39	fields24.jpg	fields	2	A	NaN	1.22462701797485	j	0	0.352619409561157	3	0
1	40	deserts2.jpg	deserts	2	X	NaN	1.16810369491577	j	0	0.245110750198364	2	0
1	41	waterfalls55.jpg	waterfalls	1	A	143	1.4273693561554	k	0	0.257279634475708	3	0
1	42	bridges53.jpg	bridges	1	A	272	1.08969688415527	j	1	0.618060827255249	3	0
1	43	forests34.jpg	forests	2	X	NaN	1.61304783821106	j	0	0.609901428222656	2	0
1	44	deserts42.jpg	deserts	1	X	115	1.0831925868988	j	1	0.321540832519531	2	0
1	45	beaches4.jpg	beaches	2	X	NaN	1.14223766326904	k	1	0.174521684646606	3	0
1	46	parks32.jpg	parks	1	B	85	1.12820720672607	j	1	0.201291799545288	2	0
1	47	fields28.jpg	fields	1	A	260	0.899577140808105	j	1	1.20230889320374	2	0
1	48	deserts47.jpg	deserts	2	X	NaN	1.35858011245728	j	0	0.44938588142395	2	0
1	49	lighthouses47.jpg	lighthouses	1	B	196	0.940712451934814	j	1	0.414166450500488	4	0
1	50	beaches47.jpg	beaches	2	X	NaN	1.89731073379517	j	0	1.02320575714111	2	0
1	51	parks4.jpg	parks	1	B	261	1.47884368896484	j	1	0.831884622573853	2	0
1	52	marshes43.jpg	marshes	1	X	215	0.93683648109436	j	1	0.51819372177124	3	0
1	53	parks44.jpg	parks	1	B	219	1.10782337188721	j	1	0.432708263397217	3	0
1	54	beaches36.jpg	beaches	2	X	NaN	0.990975618362427	k	1	0.367399930953979	2	0
1	55	forests28.jpg	forests	1	X	295	1.73296928405762	j	1	0.368382930755615	2	0
1	56	forests20.jpg	forests	2	X	NaN	0.844059467315674	j	0	0.363487720489502	2	0
1	57	canyons34.jpg	canyons	2	X	NaN	1.44188094139099	k	1	0.346008062362671	3	0
1	58	lakes1.jpg	lakes	2	X	NaN	1.60751986503601	k	1	0.259285926818848	2	0
1	59	bridges27.jpg	bridges	1	A	153	0.868475198745728	j	1	0.272496700286865	4	0
1	60	marshes53.jpg	marshes	1	X	277	1.15319037437439	j	1	0.372923851013184	2	0
1	61	fields27.jpg	fields	1	A	201	1.42556381225586	j	1	0.347567796707153	2	0
1	62	deserts14.jpg	deserts	2	X	NaN	1.15692901611328	j	0	0.293704748153687	2	0
1	63	marshes45.jpg	marshes	1	X	331	1.13864374160767	j	1	0.131939649581909	2	0
1	64	parks19.jpg	parks	2	B	NaN	1.12294340133667	k	1	0.552086591720581	2	0
1	65	lakes30.jpg	lakes	1	X	284	1.20048809051514	k	0	0.116087675094604	2	0
1	66	bridges36.jpg	bridges	1	A	95	1.15219259262085	j	1	0.295754194259644	3	0
1	67	mountains13.jpg	mountains	2	B	NaN	1.30218887329102	j	0	0.6488938331604	2	0
1	68	mountains9.jpg	mountains	2	B	NaN	1.12730145454407	k	1	0.168208599090576	2	0
1	69	canyons25.jpg	canyons	1	X	92	1.88691091537476	k	0	0.0852696895599365	2	0
1	70	canyons49.jpg	canyons	2	X	NaN	1.05827069282532	j	0	0.418977975845337	2	0
1	71	lakes41.jpg	lakes	2	X	NaN	0.963599920272827	j	0	0.136345386505127	2	0
1	72	bridges25.jpg	bridges	1	A	263	1.14032864570618	k	0	0.0928268432617188	2	0
1	73	lighthouses32.jpg	lighthouses	2	B	NaN	1.35278129577637	j	0	0.446379661560059	1	0
1	74	forests27.jpg	forests	1	X	229	1.25344276428223	j	1	0.570107936859131	2	0
1	75	parks39.jpg	parks	1	B	127	2.32380318641663	j	1	0.235876798629761	2	0
1	76	fields31.jpg	fields	2	A	NaN	1.49284791946411	j	0	0.10023021697998	2	0
1	77	marshes2.jpg	marshes	2	X	NaN	2.07167601585388	k	1	0.0817229747772217	2	0
1	78	lighthouses9.jpg	lighthouses	1	B	141	2.03360271453857	k	0	0.0402019023895264	2	0
1	79	lakes40.jpg	lakes	1	X	211	1.58798480033875	j	1	0.26439642906189	2	0
1	80	bridges30.jpg	bridges	1	A	140	2.24408578872681	j	1	0.677495241165161	2	0
1	81	bridges26.jpg	bridges	1	A	195	1.36619281768799	j	1	0.446232318878174	3	0
1	82	waterfalls9.jpg	waterfalls	2	A	NaN	2.98616504669189	j	0	0.0935916900634766	1	0
1	83	bridges49.jpg	bridges	2	A	NaN	1.78351974487305	k	1	1.53001189231873	2	0
1	84	lighthouses23.jpg	lighthouses	1	B	242	1.03498363494873	j	1	0.38034462928772	3	0
1	85	lakes55.jpg	lakes	1	X	239	1.39607954025269	k	0	0.462348937988281	2	0
1	86	lakes9.jpg	lakes	1	X	194	1.41167950630188	k	0	0.10942816734314	2	0
1	87	canyons5.jpg	canyons	2	X	NaN	1.0976939201355	j	0	0.277566909790039	2	0
1	88	parks43.jpg	parks	2	B	NaN	1.27927684783936	k	1	0.116264581680298	2	0
1	89	forests29.jpg	forests	2	X	NaN	1.06289219856262	j	0	0.152481079101562	2	0
1	90	marshes56.jpg	marshes	1	X	335	1.01790285110474	j	1	0.0799281597137451	2	0
1	91	mountains16.jpg	mountains	1	B	187	0.955677509307861	j	1	0.0472686290740967	2	0
1	92	waterfalls3.jpg	waterfalls	2	A	NaN	1.21330428123474	k	1	0.103949785232544	2	0
1	93	marshes23.jpg	marshes	1	X	150	1.06139135360718	j	1	0.0939550399780273	2	0
1	94	lakes8.jpg	lakes	2	X	NaN	1.24216890335083	k	1	0.0813508033752441	2	0
1	95	waterfalls45.jpg	waterfalls	1	A	186	1.20641684532166	k	0	0.0852882862091064	2	0
1	96	bridges28.jpg	bridges	2	A	NaN	1.1594181060791	k	1	0.562886714935303	2	0
1	97	beaches12.jpg	beaches	2	X	NaN	1.25020384788513	k	1	0.0929863452911377	2	0
1	98	beaches34.jpg	beaches	1	X	147	0.889857053756714	j	1	0.166313886642456	4	0
1	99	deserts53.jpg	deserts	2	X	NaN	1.05496215820312	j	0	0.342734813690186	3	0
1	100	parks38.jpg	parks	2	B	NaN	1.43267440795898	j	0	0.397016048431396	3	0
1	101	deserts46.jpg	deserts	1	X	298	1.27206563949585	j	1	0.249096870422363	2	0
1	102	mountains10.jpg	mountains	2	B	NaN	1.37849903106689	k	1	0.08847975730896	2	0
1	103	beaches56.jpg	beaches	2	X	NaN	1.27158260345459	k	1	0.366527557373047	3	0
1	104	beaches38.jpg	beaches	2	X	NaN	1.37410545349121	k	1	0.57917594909668	3	0
1	105	mountains15.jpg	mountains	1	B	131	1.07177639007568	j	1	0.307806968688965	3	0
1	106	mountains53.jpg	mountains	2	B	NaN	1.07921171188354	j	0	0.238131761550903	2	0
1	107	lakes23.jpg	lakes	1	X	235	1.57832741737366	j	1	0.344374179840088	2	0
1	108	beaches16.jpg	beaches	2	X	NaN	1.75434517860413	k	1	0.390951633453369	2	0
1	109	marshes10.jpg	marshes	2	X	NaN	0.902952194213867	j	0	0.765760898590088	1	0
1	110	deserts51.jpg	deserts	1	X	170	1.1475133895874	j	1	0.335954666137695	3	0
1	111	parks5.jpg	parks	1	B	226	1.38405966758728	j	1	0.57155966758728	2	0
1	112	marshes22.jpg	marshes	1	X	240	2.0881986618042	j	1	0.473549842834473	1	0
1	113	waterfalls17.jpg	waterfalls	1	A	324	1.1062216758728	j	1	0.316969633102417	2	0
1	114	deserts29.jpg	deserts	2	X	NaN	1.66364073753357	k	1	0.15627646446228	2	0
1	115	forests3.jpg	forests	1	X	193	1.18161749839783	k	0	0.102972745895386	2	0
1	116	bridges8.jpg	bridges	2	A	NaN	1.47339773178101	k	1	0.115319728851318	2	0
1	117	lakes6.jpg	lakes	2	X	NaN	1.49510765075684	k	1	0.102458715438843	2	0
1	118	beaches53.jpg	beaches	2	X	NaN	1.19425201416016	j	0	0.373513698577881	2	0
1	119	beaches29.jpg	beaches	1	X	172	0.881130218505859	j	1	0.150570631027222	4	0
1	120	fields37.jpg	fields	1	A	221	1.2597827911377	j	1	0.460532665252686	2	0
1	121	lighthouses54.jpg	lighthouses	1	B	109	1.00482583045959	j	1	0.258487224578857	3	0
1	122	beaches42.jpg	beaches	1	X	106	1.15096068382263	k	0	0.24765682220459	2	0
1	123	fields42.jpg	fields	2	A	NaN	1.03787851333618	j	0	0.320306777954102	4	0
1	124	parks37.jpg	parks	2	B	NaN	1.43106484413147	k	1	0.257348775863647	2	0
1	125	lakes18.jpg	lakes	2	X	NaN	1.31899404525757	k	1	0.0679628849029541	2	0
1	126	lakes5.jpg	lakes	2	X	NaN	1.71777081489563	j	0	0.178735494613647	2	0
1	127	bridges21.jpg	bridges	2	A	NaN	1.292405128479	j	0	0.0928230285644531	2	0
1	128	fields54.jpg	fields	1	A	225	1.05682635307312	j	1	0.196567535400391	2	0
1	129	lakes11.jpg	lakes	1	X	151	1.73495101928711	k	0	0.136199712753296	2	0
1	130	deserts1.jpg	deserts	2	X	NaN	2.20031476020813	k	1	0.0799639225006104	2	0
1	131	fields29.jpg	fields	1	A	306	0.928599834442139	j	1	0.205684423446655	2	0
1	132	beaches18.jpg	beaches	2	X	NaN	1.20505952835083	k	1	0.204720973968506	2	0
1	133	canyons2.jpg	canyons	2	X	NaN	1.23217034339905	k	1	0.068469762802124	2	0
1	134	fields3.jpg	fields	2	A	NaN	0.906131982803345	k	1	0.0847506523132324	2	0
1	135	mountains36.jpg	mountains	2	B	NaN	0.833796977996826	k	1	0.0671207904815674	2	0
1	136	deserts45.jpg	deserts	1	X	203	1.42282724380493	j	1	0.26987361907959	2	0
1	137	forests49.jpg	forests	2	X	NaN	1.55858254432678	k	1	0.060250997543335	2	0
1	138	canyons18.jpg	canyons	2	X	NaN	1.37773180007935	k	1	0.0997276306152344	2	0
1	139	lakes28.jpg	lakes	2	X	NaN	1.3690037727356	j	0	0.269039869308472	2	0
1	140	mountains37.jpg	mountains	1	B	184	0.953033208847046	j	1	0.154737949371338	2	0
1	141	lakes50.jpg	lakes	2	X	NaN	1.27408814430237	j	0	0.178270578384399	2	0
1	142	forests19.jpg	forests	1	X	286	1.1257426738739	k	0	0.0777420997619629	2	0
1	143	fields9.jpg	fields	2	A	NaN	1.11545515060425	k	1	0.0675315856933594	2	0
1	144	waterfalls51.jpg	waterfalls	1	A	191	1.19408059120178	j	1	0.238580703735352	2	0
1	145	forests26.jpg	forests	2	X	NaN	1.42880129814148	k	1	0.0818960666656494	2	0
1	146	mountains21.jpg	mountains	2	B	NaN	0.975842714309692	j	0	0.381917715072632	1	0
1	147	lighthouses55.jpg	lighthouses	2	B	NaN	1.13488984107971	j	0	0.188372135162354	2	0
1	148	lakes4.jpg	lakes	2	X	NaN	1.06136894226074	k	1	0.18704080581665	2	0
1	149	lighthouses14.jpg	lighthouses	2	B	NaN	1.60897088050842	j	0	0.119765281677246	2	0
1	150	fields7.jpg	fields	2	A	NaN	1.40938353538513	j	0	0.704073905944824	1	0
1	151	fields47.jpg	fields	1	A	84	1.74649047851562	j	1	0.0867569446563721	2	0
1	152	waterfalls16.jpg	waterfalls	1	A	293	1.53383994102478	j	1	0.584305763244629	2	0
1	153	lighthouses48.jpg	lighthouses	1	B	96	1.84330034255981	k	0	0.0918033123016357	2	0
1	154	forests50.jpg	forests	1	X	304	1.19467329978943	j	1	0.207011461257935	2	0
1	155	deserts38.jpg	deserts	1	X	317	1.25529170036316	k	0	0.0679876804351807	2	0
1	156	mountains40.jpg	mountains	2	B	NaN	1.47166538238525	j	0	0.24967885017395	2	0
1	157	marshes5.jpg	marshes	1	X	125	1.46904230117798	k	0	0.205134868621826	2	0
1	158	marshes38.jpg	marshes	2	X	NaN	1.50542402267456	j	0	0.658148050308228	1	0
1	159	bridges41.jpg	bridges	2	A	NaN	1.49659872055054	j	0	0.4628586769104	3	0
1	160	mountains51.jpg	mountains	2	B	NaN	1.15958642959595	k	1	0.11530590057373	2	0
1	161	bridges42.jpg	bridges	2	A	NaN	1.17989754676819	k	1	0.106915712356567	2	0
1	162	parks52.jpg	parks	2	B	NaN	1.23034143447876	k	1	0.110281944274902	2	0
1	163	parks53.jpg	parks	1	B	181	1.31875157356262	j	1	0.349725008010864	3	0
1	164	parks35.jpg	parks	2	B	NaN	1.63003754615784	j	0	0.226013660430908	2	0
1	165	lighthouses10.jpg	lighthouses	1	B	273	1.00502991676331	j	1	0.215767860412598	2	0
1	166	marshes12.jpg	marshes	2	X	NaN	1.65238428115845	k	1	0.898212671279907	1	0
1	167	lighthouses31.jpg	lighthouses	1	B	264	1.10756254196167	j	1	0.427103042602539	1	0
1	168	forests16.jpg	forests	2	X	NaN	1.3888087272644	j	0	0.602222442626953	2	0
1	169	marshes37.jpg	marshes	1	X	136	1.12660908699036	j	1	0.337520837783813	2	0
1	170	beaches17.jpg	beaches	1	X	330	1.5596489906311	j	1	0.132265567779541	2	0
1	171	forests39.jpg	forests	2	X	NaN	1.9907431602478	j	0	0.300207138061523	2	0
1	172	parks41.jpg	parks	1	B	146	1.23935627937317	j	1	0.099822998046875	2	0
1	173	mountains33.jpg	mountains	1	B	333	1.89811587333679	j	1	0.0458049774169922	2	0
1	174	lighthouses29.jpg	lighthouses	1	B	117	1.51790380477905	k	0	0.601990938186646	1	0
1	175	marshes44.jpg	marshes	1	X	258	1.35226368904114	j	1	0.274907350540161	1	0
1	176	deserts34.jpg	deserts	1	X	111	1.41859483718872	j	1	0.398700952529907	3	0
1	177	mountains34.jpg	mountains	1	B	192	1.53114008903503	k	0	0.221318960189819	1	0
1	178	lighthouses42.jpg	lighthouses	2	B	NaN	1.06908416748047	k	1	0.210174798965454	1	0
1	179	beaches15.jpg	beaches	2	X	NaN	1.22338056564331	j	0	0.515445709228516	2	0
1	180	lakes32.jpg	lakes	1	X	166	0.910112380981445	j	1	0.133954763412476	2	0
1	181	beaches48.jpg	beaches	2	X	NaN	1.01980471611023	k	1	0.223960638046265	2	0
1	182	forests6.jpg	forests	1	X	167	0.948509216308594	j	1	0.222108125686646	2	0
1	183	waterfalls38.jpg	waterfalls	2	A	NaN	1.45699191093445	k	1	0.260658740997314	2	0
1	184	bridges24.jpg	bridges	2	A	NaN	1.06797575950623	j	0	0.116004705429077	2	0
1	185	deserts7.jpg	deserts	1	X	270	1.22067785263062	j	1	0.0716300010681152	2	0
1	186	fields16.jpg	fields	2	A	NaN	1.10432362556458	j	0	0.324953317642212	2	0
1	187	bridges35.jpg	bridges	1	A	300	1.04790019989014	j	1	0.389394521713257	2	0
1	188	deserts25.jpg	deserts	2	X	NaN	0.978464841842651	k	1	0.0804042816162109	2	0
1	189	beaches11.jpg	beaches	1	X	185	1.15811586380005	k	0	0.0907998085021973	2	0
1	190	canyons48.jpg	canyons	2	X	NaN	1.04780769348145	k	1	0.0677392482757568	2	0
1	191	beaches21.jpg	beaches	1	X	233	1.11309337615967	j	1	0.178890705108643	2	0
1	192	fields1.jpg	fields	2	A	NaN	1.15670776367188	k	1	0.0662548542022705	2	0
1	193	deserts16.jpg	deserts	2	X	NaN	0.887910604476929	k	1	0.049307107925415	2	0
1	194	lakes13.jpg	lakes	2	X	NaN	0.993577480316162	j	0	0.041959285736084	2	0
1	195	deserts40.jpg	deserts	2	X	NaN	0.851003885269165	k	1	0.0616388320922852	2	0
1	196	bridges17.jpg	bridges	2	A	NaN	1.26206183433533	k	1	0.125672101974487	2	0
1	197	forests37.jpg	forests	2	X	NaN	0.975585222244263	j	0	0.116396903991699	2	0
1	198	lighthouses52.jpg	lighthouses	1	B	327	1.108154296875	k	0	0.0778896808624268	2	0
1	199	parks26.jpg	parks	2	B	NaN	1.15151929855347	j	0	0.160276651382446	2	0
1	200	lighthouses7.jpg	lighthouses	1	B	231	0.936615943908691	j	1	0.0328707695007324	2	0
1	201	parks30.jpg	parks	1	B	121	1.59399461746216	k	0	0.0723450183868408	2	0
1	202	forests54.jpg	forests	1	X	227	1.39817881584167	j	1	0.0158159732818604	2	0
1	203	forests41.jpg	forests	1	X	290	0.88025689125061	j	1	0.0402934551239014	2	0
1	204	forests10.jpg	forests	2	X	NaN	1.00337672233582	k	1	0.187097311019897	2	0
1	205	forests25.jpg	forests	2	X	NaN	1.27097678184509	k	1	0.110166072845459	2	0
1	206	lakes17.jpg	lakes	2	X	NaN	1.12644362449646	k	1	0.0963749885559082	2	0
1	207	canyons27.jpg	canyons	1	X	271	0.984746217727661	j	1	0.173186302185059	2	0
1	208	marshes24.jpg	marshes	1	X	101	1.04879975318909	j	1	0.0184979438781738	2	0
1	209	waterfalls1.jpg	waterfalls	2	A	NaN	1.64428997039795	k	1	0.0785195827484131	2	0
1	210	lighthouses46.jpg	lighthouses	1	B	154	1.16115999221802	j	1	0.108920574188232	2	0
1	211	waterfalls18.jpg	waterfalls	1	A	160	1.42821049690247	k	0	0.0653152465820312	2	0
1	212	beaches24.jpg	beaches	1	X	86	1.14609599113464	j	1	0.213270664215088	3	0
1	213	canyons35.jpg	canyons	2	X	NaN	1.58495187759399	j	0	0.122346162796021	1	0
1	214	beaches26.jpg	beaches	1	X	318	1.44403529167175	j	1	0.0913777351379395	2	0
1	215	marshes15.jpg	marshes	1	X	309	2.05654454231262	j	1	0.0891497135162354	2	0
1	216	forests7.jpg	forests	1	X	165	1.39430475234985	k	0	0.122684717178345	2	0
1	217	lighthouses35.jpg	lighthouses	1	B	322	1.84019875526428	j	1	0.609599113464355	1	0
1	218	marshes50.jpg	marshes	2	X	NaN	1.75890564918518	k	1	0.0735595226287842	2	0
1	219	waterfalls7.jpg	waterfalls	1	A	310	0.975224494934082	j	1	0.200281381607056	2	0
1	220	lakes21.jpg	lakes	1	X	93	1.47973108291626	j	1	0.220671415328979	2	0
1	221	mountains49.jpg	mountains	2	B	NaN	1.41835379600525	k	1	0.216479301452637	2	0
1	222	canyons14.jpg	canyons	1	X	268	1.2724711894989	k	0	0.115443229675293	2	0
1	223	forests12.jpg	forests	2	X	NaN	1.68007898330688	j	0	0.233147621154785	1	0
1	224	marshes6.jpg	marshes	2	X	NaN	1.18750500679016	j	0	0.172944784164429	1	0
1	225	waterfalls14.jpg	waterfalls	1	A	204	1.38261437416077	j	1	0.202075958251953	2	0
1	226	beaches7.jpg	beaches	1	X	197	1.1077036857605	j	1	0.125267744064331	2	0
1	227	bridges6.jpg	bridges	2	A	NaN	1.90295076370239	j	0	0.214679718017578	1	0
1	228	deserts11.jpg	deserts	1	X	179	1.36153650283813	j	1	0.250100612640381	3	0
1	229	forests52.jpg	forests	1	X	157	1.4084644317627	k	0	0.220081090927124	2	0
1	230	lighthouses21.jpg	lighthouses	1	B	178	0.944095849990845	j	1	0.290421962738037	2	0
1	231	deserts22.jpg	deserts	1	X	128	1.56448125839233	j	1	0.399561882019043	2	0
1	232	fields18.jpg	fields	1	A	282	0.997184038162231	j	1	0.0429036617279053	2	0
1	233	lighthouses56.jpg	lighthouses	2	B	NaN	1.52792572975159	k	1	1.12001442909241	2	0
1	234	mountains50.jpg	mountains	1	B	144	1.34056615829468	k	0	0.235939741134644	2	0
1	235	lakes42.jpg	lakes	2	X	NaN	1.09498167037964	k	1	0.085517406463623	2	0
1	236	parks54.jpg	parks	1	B	202	1.28947949409485	j	1	0.0818679332733154	1	0
1	237	mountains55.jpg	mountains	1	B	156	0.941720724105835	j	1	0.132103204727173	2	0
1	238	mountains30.jpg	mountains	1	B	276	1.21626758575439	j	1	0.610197305679321	2	0
1	239	bridges1.jpg	bridges	1	A	266	1.14254522323608	k	0	0.0998239517211914	2	0
1	240	lighthouses44.jpg	lighthouses	2	B	NaN	1.27926111221313	k	1	0.462377786636353	1	0
1	241	bridges22.jpg	bridges	2	A	NaN	1.75959491729736	k	1	0.264495134353638	2	0
1	242	lakes35.jpg	lakes	2	X	NaN	1.24956679344177	k	1	0.092278003692627	2	0
1	243	bridges47.jpg	bridges	1	A	209	1.29726409912109	k	0	0.0741314888000488	2	0
1	244	forests5.jpg	forests	1	X	319	1.40269565582275	k	0	0.0853562355041504	2	0
1	245	fields5.jpg	fields	1	A	256	1.58980250358582	j	1	0.0880680084228516	1	0
1	246	beaches27.jpg	beaches	2	X	NaN	1.46504426002502	k	1	0.0861837863922119	2	0
1	247	beaches8.jpg	beaches	2	X	NaN	0.874643325805664	k	1	0.07155442237854	2	0
1	248	lighthouses34.jpg	lighthouses	2	B	NaN	1.41220259666443	k	1	0.0959627628326416	2	0
1	249	lakes33.jpg	lakes	1	X	163	1.1439368724823	k	0	1.27526688575745	1	0
1	250	parks21.jpg	parks	2	B	NaN	1.1679539680481	k	1	0.0610387325286865	2	0
1	251	canyons15.jpg	canyons	2	X	NaN	1.10371804237366	k	1	0.0694704055786133	2	0
1	252	beaches54.jpg	beaches	2	X	NaN	1.00115847587585	k	1	0.0827317237854004	2	0
1	253	canyons38.jpg	canyons	1	X	245	1.5137345790863	k	0	0.0783870220184326	2	0
1	254	beaches13.jpg	beaches	1	X	164	1.07323551177979	j	1	0.0943999290466309	2	0
1	255	mountains5.jpg	mountains	1	B	119	0.873100757598877	j	1	0.0400903224945068	2	0
1	256	deserts32.jpg	deserts	1	X	236	0.917126893997192	j	1	0.0061643123626709	2	0
1	257	beaches43.jpg	beaches	2	X	NaN	1.13660526275635	k	1	0.061974048614502	2	0
1	258	deserts5.jpg	deserts	1	X	249	1.41024541854858	j	1	0.103955507278442	2	0
1	259	fields36.jpg	fields	1	A	279	1.02726793289185	j	1	0.00454998016357422	2	0
1	260	fields52.jpg	fields	1	A	126	1.05964374542236	j	1	0.0362825393676758	2	0
1	261	beaches14.jpg	beaches	1	X	243	1.12953233718872	j	1	0.0647463798522949	2	0
1	262	bridges56.jpg	bridges	1	A	241	0.883075952529907	j	1	0.0694577693939209	2	0
1	263	waterfalls12.jpg	waterfalls	2	A	NaN	2.06216549873352	k	1	0.0798704624176025	2	0
1	264	deserts36.jpg	deserts	2	X	NaN	0.814203500747681	j	0	0.410377740859985	1	0
1	265	marshes27.jpg	marshes	2	X	NaN	1.07351875305176	j	0	0.127538919448853	2	0
1	266	forests47.jpg	forests	1	X	110	0.816345691680908	j	1	0.153233289718628	2	0
1	267	marshes4.jpg	marshes	1	X	133	1.6536808013916	j	1	0.0252647399902344	2	0
1	268	lighthouses33.jpg	lighthouses	1	B	190	1.04091763496399	k	0	0.238385915756226	2	0
1	269	deserts31.jpg	deserts	2	X	NaN	1.422691822052	k	1	0.0758259296417236	2	0
1	270	lighthouses40.jpg	lighthouses	2	B	NaN	1.53138780593872	j	0	0.0627560615539551	1	0
1	271	mountains27.jpg	mountains	2	B	NaN	0.893100261688232	j	0	0.0574297904968262	1	0
1	272	canyons53.jpg	canyons	2	X	NaN	2.48974013328552	k	1	0.0651669502258301	2	0
1	273	canyons56.jpg	canyons	1	X	97	0.859140872955322	j	1	0.0670130252838135	2	0
1	274	bridges16.jpg	bridges	2	A	NaN	1.34049081802368	k	1	0.0710716247558594	2	0
1	275	parks55.jpg	parks	1	B	213	1.31664991378784	k	0	0.0657057762145996	2	0
1	276	waterfalls27.jpg	waterfalls	2	A	NaN	1.24730396270752	k	1	0.0879099369049072	2	0
1	277	lakes26.jpg	lakes	1	X	312	1.27909803390503	k	0	0.112076282501221	2	0
1	278	beaches19.jpg	beaches	2	X	NaN	1.32837271690369	k	1	0.0825319290161133	2	0
1	279	lakes34.jpg	lakes	2	X	NaN	1.03741598129272	k	1	0.0868237018585205	2	0
1	280	lakes24.jpg	lakes	1	X	278	1.27880263328552	j	1	0.129853487014771	2	0
1	281	mountains20.jpg	mountains	2	B	NaN	0.932476997375488	k	1	0.0937719345092773	2	0
1	282	lakes2.jpg	lakes	1	X	289	0.860862016677856	j	1	0.169514179229736	2	0
1	283	forests22.jpg	forests	1	X	281	1.14727473258972	j	1	0.0535435676574707	2	0
1	284	fields2.jpg	fields	1	A	145	1.45793414115906	j	1	0.487640619277954	1	0
1	285	parks12.jpg	parks	2	B	NaN	1.10664629936218	j	0	0.0844206809997559	2	0
1	286	waterfalls23.jpg	waterfalls	1	A	183	1.30539655685425	k	0	0.0691108703613281	2	0
1	287	canyons19.jpg	canyons	1	X	149	1.26273107528687	j	1	0.101503610610962	1	0
1	288	forests14.jpg	forests	2	X	NaN	1.08075523376465	k	1	0.104163646697998	2	0
1	289	bridges31.jpg	bridges	2	A	NaN	1.49443984031677	j	0	0.0647726058959961	2	0
1	290	mountains35.jpg	mountains	1	B	161	0.875122308731079	j	1	0.0192041397094727	2	0
1	291	parks51.jpg	parks	1	B	138	1.08314752578735	k	0	0.0685603618621826	2	0
1	292	fields44.jpg	fields	2	A	NaN	1.41626596450806	k	1	0.418301105499268	2	0
1	293	marshes48.jpg	marshes	2	X	NaN	0.826964378356934	j	0	0.125947713851929	2	0
1	294	beaches49.jpg	beaches	1	X	129	1.05160284042358	j	1	0.0614182949066162	2	0
1	295	beaches45.jpg	beaches	1	X	265	1.07869577407837	j	1	0.0427713394165039	2	0
1	296	lighthouses3.jpg	lighthouses	2	B	NaN	0.835771799087524	j	0	0.0120663642883301	2	0
1	297	bridges37.jpg	bridges	2	A	NaN	0.933536767959595	k	1	0.0537540912628174	2	0
1	298	fields10.jpg	fields	2	A	NaN	1.51707577705383	k	1	0.0672755241394043	2	0
1	299	deserts6.jpg	deserts	1	X	255	1.58626365661621	k	0	0.0636146068572998	2	0
1	300	deserts3.jpg	deserts	1	X	176	0.858153820037842	j	1	0.0198566913604736	2	0
1	301	parks18.jpg	parks	2	B	NaN	1.40057611465454	k	1	0.0382556915283203	2	0
1	302	fields48.jpg	fields	1	A	168	0.976426839828491	j	1	0.0784306526184082	2	0
1	303	lakes20.jpg	lakes	2	X	NaN	1.25499033927917	k	1	0.0466668605804443	2	0
1	304	fields25.jpg	fields	1	A	212	1.13776326179504	k	0	0.102073192596436	2	0
1	305	deserts54.jpg	deserts	2	X	NaN	0.887391805648804	j	0	0.441745042800903	1	0
1	306	beaches3.jpg	beaches	2	X	NaN	1.01082301139832	k	1	0.0815238952636719	2	0
1	307	lakes19.jpg	lakes	1	X	182	0.896475076675415	j	1	0.0549161434173584	2	0
1	308	fields41.jpg	fields	2	A	NaN	1.04316353797913	k	1	0.153563737869263	2	0
1	309	lighthouses2.jpg	lighthouses	1	B	267	0.973931074142456	j	1	0.0378437042236328	2	0
1	310	bridges10.jpg	bridges	1	A	326	0.928922653198242	k	0	0.0540120601654053	2	0
1	311	parks50.jpg	parks	2	B	NaN	1.08226919174194	k	1	0.0296630859375	2	0
1	312	forests45.jpg	forests	2	X	NaN	1.1836154460907	k	1	0.715783834457397	2	0
1	313	bridges9.jpg	bridges	1	A	189	1.34083104133606	j	1	0.0560579299926758	1	0
1	314	deserts24.jpg	deserts	2	X	NaN	1.53653573989868	k	1	0.0898287296295166	2	0
1	315	fields49.jpg	fields	1	A	252	1.29016089439392	j	1	0.0634329319000244	1	0
1	316	bridges39.jpg	bridges	1	A	177	1.34386777877808	j	1	0.21117377281189	2	0
1	317	lighthouses4.jpg	lighthouses	2	B	NaN	1.66658687591553	j	0	0.0465328693389893	1	0
1	318	waterfalls31.jpg	waterfalls	2	A	NaN	1.43497276306152	k	1	0.243353843688965	2	0
1	319	lighthouses36.jpg	lighthouses	2	B	NaN	1.8553307056427	k	1	0.0709989070892334	2	0
1	320	lighthouses18.jpg	lighthouses	2	B	NaN	0.869992733001709	j	0	0.168110847473145	1	0
1	321	parks27.jpg	parks	1	B	283	1.47062802314758	k	0	0.170765161514282	2	0
1	322	waterfalls10.jpg	waterfalls	1	A	332	0.830458879470825	j	1	0.00781130790710449	2	0
1	323	marshes8.jpg	marshes	2	X	NaN	1.45106053352356	j	0	0.262881517410278	2	0
1	324	waterfalls24.jpg	waterfalls	1	A	174	1.44748258590698	k	0	0.0641610622406006	2	0
1	325	canyons40.jpg	canyons	1	X	251	1.10519099235535	j	1	0.147902965545654	1	0
1	326	deserts30.jpg	deserts	2	X	NaN	1.00224685668945	j	0	0.0889110565185547	2	0
1	327	mountains41.jpg	mountains	2	B	NaN	0.928802728652954	j	0	0.0279815196990967	2	0
1	328	canyons47.jpg	canyons	1	X	296	1.28363466262817	k	0	0.0539376735687256	2	0
1	329	mountains12.jpg	mountains	1	B	329	1.12827968597412	k	0	0.0884027481079102	2	0
1	330	mountains54.jpg	mountains	1	B	238	1.60539221763611	j	1	0.228054046630859	1	0
1	331	waterfalls37.jpg	waterfalls	2	A	NaN	1.34177374839783	k	1	0.0680868625640869	2	0
1	332	lighthouses6.jpg	lighthouses	2	B	NaN	1.09313368797302	j	0	0.22348690032959	3	0
1	333	deserts43.jpg	deserts	2	X	NaN	1.47420620918274	k	1	0.0884091854095459	2	0
1	334	waterfalls29.jpg	waterfalls	1	A	275	1.02218294143677	k	0	0.0722367763519287	2	0
1	335	mountains32.jpg	mountains	1	B	205	1.38303995132446	j	1	0.00834536552429199	1	0
1	336	parks36.jpg	parks	1	B	159	0.978623628616333	j	1	0.157782554626465	3	0
1	337	lakes29.jpg	lakes	1	X	208	1.02316069602966	k	0	0.067955493927002	2	0
1	338	waterfalls30.jpg	waterfalls	2	A	NaN	0.994794845581055	k	1	0.0880329608917236	2	0
1	339	lakes3.jpg	lakes	2	X	NaN	0.98406195640564	k	1	0.0637407302856445	2	0
1	340	mountains24.jpg	mountains	1	B	90	0.854812860488892	j	1	0.0404889583587646	1	0
1	341	bridges38.jpg	bridges	2	A	NaN	0.980509042739868	j	0	0.0657968521118164	2	0
1	342	forests36.jpg	forests	1	X	274	1.368492603302	j	1	0.097923755645752	2	0
1	343	lighthouses27.jpg	lighthouses	1	B	135	1.19488215446472	j	1	0.153190612792969	2	0
1	344	lighthouses17.jpg	lighthouses	1	B	113	1.43558573722839	j	1	0.0249357223510742	2	0
1	345	waterfalls48.jpg	waterfalls	1	A	118	1.10862469673157	k	0	0.0703029632568359	2	0
1	346	lighthouses41.jpg	lighthouses	2	B	NaN	1.04807066917419	j	0	0.00866389274597168	2	0
1	347	marshes29.jpg	marshes	2	X	NaN	0.856074094772339	j	0	0.118742704391479	2	0
1	348	parks33.jpg	parks	2	B	NaN	0.980345726013184	j	0	0.673414945602417	2	0
1	349	deserts48.jpg	deserts	1	X	244	1.28314852714539	k	0	0.063499927520752	2	0
1	350	beaches55.jpg	beaches	1	X	285	0.868827819824219	j	1	0.0828149318695068	4	0
1	351	parks1.jpg	parks	2	B	NaN	1.03277492523193	k	1	0.0571343898773193	2	0
1	352	mountains52.jpg	mountains	1	B	124	1.67650318145752	k	0	0.227735757827759	2	0
1	353	bridges20.jpg	bridges	2	A	NaN	1.22318196296692	k	1	0.450312376022339	1	0
1	354	mountains46.jpg	mountains	2	B	NaN	1.83760190010071	k	1	0.253040075302124	2	0
1	355	waterfalls2.jpg	waterfalls	1	A	328	1.24571466445923	j	1	0.365087032318115	2	0
1	356	forests38.jpg	forests	1	X	94	0.887778043746948	j	1	0.235251188278198	2	0
1	357	parks46.jpg	parks	2	B	NaN	0.991139888763428	k	1	0.330463171005249	4	0
1	358	beaches23.jpg	beaches	1	X	217	1.24615478515625	j	1	0.378468751907349	3	0
1	359	lakes10.jpg	lakes	2	X	NaN	1.47319793701172	k	1	0.497219800949097	1	0
1	360	waterfalls33.jpg	waterfalls	2	A	NaN	1.0505108833313	j	0	0.275333881378174	2	0
1	361	marshes26.jpg	marshes	1	X	224	0.971981048583984	j	1	0.15414834022522	3	0
1	362	mountains38.jpg	mountains	1	B	294	1.0003547668457	k	0	0.245006799697876	3	0
1	363	waterfalls6.jpg	waterfalls	1	A	123	1.54903197288513	k	0	0.0597629547119141	2	0
1	364	bridges50.jpg	bridges	2	A	NaN	1.1183967590332	j	0	0.355476856231689	2	0
1	365	canyons3.jpg	canyons	2	X	NaN	0.847937107086182	j	0	0.324479818344116	2	0
1	366	lighthouses49.jpg	lighthouses	1	B	292	0.926174879074097	j	1	0.119135856628418	2	0
1	367	lighthouses28.jpg	lighthouses	2	B	NaN	1.2419548034668	k	1	0.11625862121582	2	0
1	368	bridges44.jpg	bridges	1	A	291	0.981979131698608	k	0	0.250271081924438	2	0
1	369	lakes47.jpg	lakes	1	X	91	0.974586009979248	k	0	0.0835707187652588	2	0
1	370	lakes16.jpg	lakes	1	X	297	1.01866412162781	k	0	0.0656087398529053	2	0
1	371	fields14.jpg	fields	1	A	218	0.893314599990845	j	1	0.0556306838989258	2	0
1	372	deserts4.jpg	deserts	1	X	334	1.11902499198914	j	1	0.0289819240570068	2	0
1	373	canyons52.jpg	canyons	1	X	198	0.822780609130859	k	0	0.0727231502532959	2	0
1	374	mountains39.jpg	mountains	2	B	NaN	0.768279790878296	k	1	0.0713493824005127	2	0
1	375	mountains23.jpg	mountains	2	B	NaN	0.856244802474976	j	0	0.0908510684967041	2	0
1	376	bridges33.jpg	bridges	1	A	199	1.08189749717712	k	0	0.0592586994171143	2	0
1	377	mountains8.jpg	mountains	2	B	NaN	0.740517139434814	j	0	0.0190927982330322	2	0
1	378	marshes52.jpg	marshes	2	X	NaN	1.06359386444092	k	1	0.0732505321502686	2	0
1	379	fields12.jpg	fields	2	A	NaN	0.919857025146484	k	1	0.0679268836975098	2	0
1	380	deserts44.jpg	deserts	2	X	NaN	1.22162675857544	j	0	0.0286319255828857	2	0
1	381	canyons28.jpg	canyons	1	X	314	0.785315990447998	k	0	0.983618974685669	1	0
1	382	lighthouses22.jpg	lighthouses	2	B	NaN	0.955651521682739	j	0	0.0673513412475586	2	0
1	383	lighthouses11.jpg	lighthouses	2	B	NaN	1.22807574272156	k	1	0.0781328678131104	2	0
1	384	parks28.jpg	parks	1	B	222	1.10377478599548	k	0	1.08847212791443	1	0
1	385	fields38.jpg	fields	1	A	137	0.931496858596802	k	0	0.0849297046661377	2	0
1	386	waterfalls4.jpg	waterfalls	2	A	NaN	0.745047330856323	k	1	0.0871992111206055	2	0
1	387	parks11.jpg	parks	1	B	307	0.99017596244812	j	1	0.155595541000366	2	0
1	388	lighthouses25.jpg	lighthouses	2	B	NaN	1.02398681640625	k	1	0.0670397281646729	2	0
1	389	bridges5.jpg	bridges	1	A	321	1.48164772987366	k	0	0.0529909133911133	2	0
1	390	marshes19.jpg	marshes	1	X	262	0.930333614349365	j	1	0.0543003082275391	2	0
1	391	lakes12.jpg	lakes	2	X	NaN	1.01671075820923	j	0	0.0267798900604248	2	0
1	392	waterfalls40.jpg	waterfalls	2	A	NaN	0.894584655761719	j	0	0.0388531684875488	2	0
1	393	canyons42.jpg	canyons	1	X	308	1.50579500198364	k	0	0.054502010345459	2	0
1	394	fields56.jpg	fields	2	A	NaN	1.17377638816833	k	1	0.0720741748809814	2	0
1	395	forests1.jpg	forests	2	X	NaN	0.834518432617188	j	0	0.0368287563323975	2	0
1	396	parks16.jpg	parks	2	B	NaN	1.34995079040527	k	1	0.0435807704925537	2	0
1	397	marshes9.jpg	marshes	2	X	NaN	0.780577659606934	j	0	0.114628076553345	2	0
1	398	fields22.jpg	fields	2	A	NaN	1.66345167160034	j	0	0.0261144638061523	2	0
1	399	beaches51.jpg	beaches	2	X	NaN	0.90581488609314	k	1	0.0643010139465332	2	0
1	400	fields46.jpg	fields	2	A	NaN	1.32806515693665	k	1	0.0641326904296875	2	0
1	401	waterfalls13.jpg	waterfalls	1	A	287	1.05872440338135	k	0	0.0804617404937744	2	0
1	402	mountains11.jpg	mountains	2	B	NaN	0.813496589660645	j	0	0.155166625976562	2	0
1	403	waterfalls26.jpg	waterfalls	2	A	NaN	1.33461165428162	k	1	0.0377776622772217	2	0
1	404	fields51.jpg	fields	1	A	102	0.941837310791016	k	0	0.0671780109405518	2	0
1	405	deserts13.jpg	deserts	2	X	NaN	1.22889089584351	j	0	0.0869221687316895	1	0
1	406	deserts21.jpg	deserts	1	X	152	1.30587387084961	j	1	0.102777719497681	2	0
1	407	waterfalls15.jpg	waterfalls	1	A	237	0.936974287033081	k	0	0.0673010349273682	2	0
1	408	marshes16.jpg	marshes	1	X	220	0.97204065322876	j	1	0.10101580619812	2	0
1	409	deserts50.jpg	deserts	1	X	132	0.811377286911011	j	1	0.0281038284301758	2	0
1	410	beaches25.jpg	beaches	2	X	NaN	1.1047248840332	k	1	0.0583863258361816	2	0
1	411	beaches5.jpg	beaches	1	X	269	0.771827936172485	k	0	0.714783668518066	1	0
1	412	bridges15.jpg	bridges	2	A	NaN	1.27848625183105	j	0	0.184415578842163	2	0
1	413	lakes39.jpg	lakes	1	X	122	0.919635057449341	j	1	0.0185480117797852	2	0
1	414	lighthouses30.jpg	lighthouses	2	B	NaN	1.50720262527466	j	0	0.00597286224365234	2	0
1	415	marshes13.jpg	marshes	1	X	246	0.858248233795166	j	1	0.137938737869263	2	0
1	416	waterfalls35.jpg	waterfalls	1	A	247	1.03489971160889	k	0	0.0402910709381104	2	0
1	417	canyons46.jpg	canyons	2	X	NaN	1.15838050842285	k	1	0.188127517700195	2	0
1	418	forests31.jpg	forests	2	X	NaN	0.819087743759155	k	1	0.463131666183472	2	0
1	419	fields26.jpg	fields	2	A	NaN	1.20538973808289	k	1	0.0600676536560059	2	0
1	420	marshes55.jpg	marshes	2	X	NaN	1.1293740272522	j	0	0.0354247093200684	1	0
1	421	mountains44.jpg	mountains	2	B	NaN	0.979550123214722	j	0	0.0466108322143555	1	0
1	422	marshes36.jpg	marshes	2	X	NaN	1.08257079124451	k	1	0.0728490352630615	2	0
1	423	parks9.jpg	parks	2	B	NaN	0.950577735900879	j	0	0.0883595943450928	2	0
1	424	canyons50.jpg	canyons	2	X	NaN	1.01035737991333	k	1	0.0419638156890869	2	0
1	425	marshes20.jpg	marshes	2	X	NaN	0.820050001144409	j	0	0.254113674163818	1	0
1	426	forests33.jpg	forests	2	X	NaN	1.21439719200134	j	0	0.103439807891846	2	0
1	427	fields21.jpg	fields	2	A	NaN	0.924652814865112	j	0	0.0446224212646484	2	0
1	428	forests17.jpg	forests	1	X	250	1.06590604782104	j	1	0.0728893280029297	2	0
1	429	canyons4.jpg	canyons	1	X	114	1.1145715713501	k	0	0.0714068412780762	2	0
1	430	marshes54.jpg	marshes	2	X	NaN	1.26625156402588	k	1	0.0932202339172363	2	0
1	431	lighthouses1.jpg	lighthouses	1	B	200	0.868162631988525	k	0	0.122124433517456	2	0
1	432	fields32.jpg	fields	1	A	158	1.06384897232056	k	0	0.0815427303314209	2	0
1	433	canyons31.jpg	canyons	2	X	NaN	1.18764138221741	j	0	0.21704363822937	1	0
1	434	beaches39.jpg	beaches	2	X	NaN	0.892558097839355	k	1	0.0650994777679443	2	0
1	435	bridges4.jpg	bridges	1	A	230	1.05870795249939	j	1	0.0884687900543213	2	0
1	436	waterfalls42.jpg	waterfalls	1	A	155	1.27535009384155	k	0	0.433571815490723	2	0
1	437	deserts33.jpg	deserts	1	X	323	1.42939567565918	j	1	0.0354430675506592	2	0
1	438	lighthouses43.jpg	lighthouses	1	B	301	0.944421052932739	j	1	0.175809621810913	2	0
1	439	marshes42.jpg	marshes	2	X	NaN	1.13350176811218	j	0	0.246816635131836	2	0
1	440	deserts35.jpg	deserts	1	X	87	1.30591368675232	k	0	0.114599943161011	2	0
1	441	marshes7.jpg	marshes	2	X	NaN	0.971278429031372	j	0	0.0782287120819092	2	0
1	442	lakes52.jpg	lakes	2	X	NaN	1.35201668739319	j	0	0.000277996063232422	2	0
1	443	canyons7.jpg	canyons	1	X	162	1.26189923286438	j	1	0.138863801956177	2	0
1	444	lighthouses53.jpg	lighthouses	2	B	NaN	0.964615821838379	k	1	0.0696547031402588	2	0
1	445	mountains4.jpg	mountains	2	B	NaN	0.954319715499878	j	0	0.236076831817627	2	0
1	446	marshes33.jpg	marshes	1	X	234	1.08312368392944	j	1	0.0895609855651855	1	0
1	447	fields33.jpg	fields	1	A	120	0.958486795425415	j	1	0.390327453613281	2	0
1	448	mountains28.jpg	mountains	1	B	175	1.27726006507874	k	0	0.0702159404754639	2	0
1	449	mountains17.jpg	mountains	2	B	NaN	1.5018618106842	k	1	0.0415825843811035	2	0
1	450	waterfalls39.jpg	waterfalls	2	A	NaN	1.35366892814636	j	0	0.0512866973876953	2	0
1	451	forests21.jpg	forests	2	X	NaN	1.32673454284668	j	0	0.024590015411377	2	0
1	452	waterfalls28.jpg	waterfalls	2	A	NaN	1.2622447013855	j	0	0.406092882156372	1	0
1	453	forests13.jpg	forests	2	X	NaN	1.26730275154114	k	1	0.0653939247131348	2	0
1	454	forests8.jpg	forests	1	X	188	0.988063097000122	j	1	0.0584077835083008	2	0
1	455	waterfalls43.jpg	waterfalls	2	A	NaN	1.15479469299316	k	1	0.0755300521850586	2	0
1	456	parks56.jpg	parks	1	B	253	1.39117956161499	k	0	0.733502864837646	1	0
1	457	fields45.jpg	fields	1	A	302	1.02588701248169	k	0	0.20694637298584	2	0
1	458	beaches1.jpg	beaches	1	X	254	0.837238788604736	j	1	0.0645458698272705	4	0
1	459	parks40.jpg	parks	1	B	169	1.33568549156189	j	1	0.277942895889282	2	0
1	460	mountains3.jpg	mountains	1	B	325	0.873551368713379	k	0	0.0806851387023926	2	0
1	461	canyons39.jpg	canyons	1	X	173	0.912799835205078	j	1	0.111468553543091	4	0
1	462	forests32.jpg	forests	1	X	142	0.952723979949951	k	0	1.04140591621399	1	0
1	463	canyons13.jpg	canyons	2	X	NaN	1.15061640739441	k	1	0.0991437435150146	2	0
1	464	waterfalls11.jpg	waterfalls	1	A	89	1.30046892166138	j	1	0.0282340049743652	1	0
1	465	forests15.jpg	forests	2	X	NaN	0.924904823303223	j	0	0.148908853530884	2	0
1	466	marshes21.jpg	marshes	1	X	315	1.40521311759949	j	1	0.216964483261108	3	0
1	467	mountains29.jpg	mountains	2	B	NaN	0.928587913513184	k	1	0.0996320247650146	2	0
1	468	waterfalls34.jpg	waterfalls	2	A	NaN	1.14290046691895	j	0	0.366370677947998	2	0
1	469	beaches20.jpg	beaches	1	X	88	0.987030506134033	j	1	0.178449630737305	3	0
1	470	marshes41.jpg	marshes	1	X	139	1.35612463951111	j	1	0.160677909851074	2	0
1	471	waterfalls50.jpg	waterfalls	2	A	NaN	1.6121232509613	k	1	0.113722562789917	2	0
1	472	forests2.jpg	forests	2	X	NaN	0.957171201705933	j	0	0.342794895172119	1	0
1	473	parks24.jpg	parks	2	B	NaN	0.971806287765503	j	0	0.138905763626099	3	0
1	474	canyons44.jpg	canyons	2	X	NaN	0.996849775314331	k	1	0.25420093536377	2	0
1	475	bridges18.jpg	bridges	2	A	NaN	1.03556776046753	k	1	0.0788938999176025	2	0
1	476	lakes51.jpg	lakes	1	X	100	1.17866110801697	j	1	0.0586416721343994	2	0
1	477	fields34.jpg	fields	2	A	NaN	1.11394429206848	j	0	0.0809810161590576	1	0
1	478	beaches30.jpg	beaches	1	X	99	1.01304793357849	j	1	0.110786199569702	2	0
1	479	canyons16.jpg	canyons	1	X	305	1.35198593139648	k	0	0.0628113746643066	2	0
1	480	lakes36.jpg	lakes	2	X	NaN	1.1831226348877	k	1	0.077390193939209	2	0
1	481	forests18.jpg	forests	2	X	NaN	0.935098648071289	k	1	0.149455785751343	2	0
1	482	fields23.jpg	fields	1	A	180	0.844855785369873	j	1	0.0561084747314453	2	0
1	483	canyons22.jpg	canyons	1	X	299	1.04852390289307	j	1	0.055283784866333	2	0
1	484	marshes11.jpg	marshes	2	X	NaN	0.990545749664307	j	0	0.00596928596496582	2	0
1	485	bridges14.jpg	bridges	1	A	134	1.41842484474182	j	1	0.0172011852264404	2	0
1	486	canyons41.jpg	canyons	1	X	232	1.11205101013184	j	1	0.0596244335174561	2	0
1	487	waterfalls56.jpg	waterfalls	2	A	NaN	1.16498756408691	k	1	0.0660836696624756	2	0
1	488	lakes56.jpg	lakes	1	X	228	0.943686962127686	k	0	0.074152946472168	2	0
1	489	forests53.jpg	forests	1	X	207	1.01592516899109	k	0	0.0617830753326416	2	0
1	490	mountains56.jpg	mountains	1	B	248	1.09011054039001	j	1	0.245429754257202	1	0
1	491	deserts26.jpg	deserts	2	X	NaN	0.94945240020752	j	0	0.000317811965942383	2	0
1	492	bridges13.jpg	bridges	2	A	NaN	1.04059767723083	j	0	0.0478599071502686	2	0
1	493	parks29.jpg	parks	1	B	303	1.19620561599731	k	0	0.468582153320312	2	0
1	494	bridges54.jpg	bridges	2	A	NaN	1.40835070610046	j	0	0.458088874816895	1	0
1	495	beaches32.jpg	beaches	1	X	259	1.300297498703	j	1	0.0321660041809082	1	0
1	496	canyons21.jpg	canyons	2	X	NaN	1.02506804466248	j	0	0.408926725387573	2	0
1	497	canyons9.jpg	canyons	1	X	104	1.00236201286316	j	1	0.0139987468719482	2	0
1	498	lighthouses8.jpg	lighthouses	1	B	210	1.06676363945007	k	0	0.0667517185211182	2	0
1	499	deserts19.jpg	deserts	1	X	148	0.884433746337891	j	1	0.0559718608856201	2	0
1	500	mountains45.jpg	mountains	1	B	288	1.40520167350769	j	1	0.342775821685791	1	0
1	501	canyons1.jpg	canyons	2	X	NaN	0.771916627883911	j	0	0.135814189910889	2	0
1	502	deserts39.jpg	deserts	2	X	NaN	0.87995171546936	j	0	0.0650076866149902	2	0
1	503	canyons11.jpg	canyons	2	X	NaN	1.19557690620422	j	0	0.0309464931488037	2	0
2	0	forests1.jpg	forests	1	X	206	4.80417966842651	j	1	1.30597686767578	2	1
2	1	canyons52.jpg	canyons	2	A	NaN	2.86425352096558	k	1	0.863363027572632	2	1
2	2	deserts13.jpg	deserts	2	A	NaN	1.29771542549133	j	0	1.07640695571899	3	1
2	3	fields24.jpg	fields	1	X	234	1.95112276077271	j	1	0.506821155548096	4	1
2	4	marshes27.jpg	marshes	1	A	107	1.0493278503418	j	1	0.305839061737061	4	1
2	5	forests40.jpg	forests	2	X	NaN	1.19125580787659	j	0	0.168581962585449	4	1
2	6	lighthouses55.jpg	lighthouses	1	X	242	0.954264640808105	j	1	0.0389301776885986	4	1
2	7	lakes13.jpg	lakes	1	X	274	1.07612490653992	j	1	0.0609602928161621	4	1
2	8	marshes18.jpg	marshes	1	A	228	1.6884331703186	j	1	0.389798164367676	3	1
2	9	mountains52.jpg	mountains	1	B	317	2.98870992660522	k	0	0.84808611869812	2	1
2	10	bridges25.jpg	bridges	2	X	NaN	1.14340114593506	j	0	0.0438697338104248	4	1
2	11	beaches46.jpg	beaches	2	X	NaN	0.837828397750854	j	0	0.0271973609924316	4	1
2	12	mountains37.jpg	mountains	2	B	NaN	1.28704071044922	k	1	0.94813060760498	2	1
2	13	parks33.jpg	parks	2	B	NaN	1.69225430488586	j	0	0.00162672996520996	4	1
2	14	lighthouses1.jpg	lighthouses	2	X	NaN	1.37697792053223	j	0	0.716649055480957	4	1
2	15	canyons13.jpg	canyons	1	A	209	1.40541076660156	k	0	0.79123854637146	2	1
2	16	parks55.jpg	parks	1	B	101	0.891386747360229	j	1	0.159435749053955	4	1
2	17	canyons15.jpg	canyons	1	A	281	1.84381747245789	k	0	0.705239295959473	2	1
2	18	mountains19.jpg	mountains	1	B	189	1.1774320602417	k	0	0.314569234848022	2	1
2	19	beaches55.jpg	beaches	2	X	NaN	1.46215677261353	k	1	0.276918649673462	2	1
2	20	parks29.jpg	parks	2	B	NaN	0.997583866119385	j	0	0.056002140045166	4	1
2	21	bridges34.jpg	bridges	1	X	327	1.34438681602478	k	0	0.647551774978638	3	1
2	22	fields37.jpg	fields	1	X	291	0.930675745010376	j	1	0.0256898403167725	4	1
2	23	canyons12.jpg	canyons	2	A	NaN	1.21164703369141	k	1	0.342366695404053	2	1
2	24	lakes31.jpg	lakes	1	X	85	0.910398960113525	j	1	0.0282177925109863	4	1
2	25	deserts46.jpg	deserts	1	A	303	0.954904556274414	k	0	0.0905380249023438	2	1
2	26	lakes53.jpg	lakes	2	X	NaN	1.05453610420227	k	1	0.0642287731170654	2	1
2	27	fields38.jpg	fields	1	X	156	1.56004953384399	j	1	0.000494003295898438	4	1
2	28	parks17.jpg	parks	1	B	253	1.21290826797485	j	1	0.564243793487549	4	1
2	29	deserts18.jpg	deserts	2	A	NaN	2.25592088699341	k	1	1.0718719959259	2	1
2	30	waterfalls18.jpg	waterfalls	1	B	111	1.25040745735168	k	0	0.262116670608521	2	1
2	31	forests55.jpg	forests	1	X	88	1.10741496086121	k	0	0.384145736694336	2	1
2	32	lighthouses18.jpg	lighthouses	2	X	NaN	0.908410787582397	j	0	0.108086824417114	4	1
2	33	canyons27.jpg	canyons	2	A	NaN	0.985393762588501	k	1	0.210939168930054	2	1
2	34	parks32.jpg	parks	2	B	NaN	1.41223454475403	j	0	0.110842704772949	4	1
2	35	canyons44.jpg	canyons	1	A	136	1.11128044128418	k	0	0.268854379653931	2	1
2	36	lakes40.jpg	lakes	2	X	NaN	1.72471976280212	j	0	0.230747938156128	4	1
2	37	deserts10.jpg	deserts	1	A	138	0.885658502578735	k	0	0.308016538619995	2	1
2	38	fields45.jpg	fields	1	X	236	0.843423128128052	j	1	0.104835510253906	4	1
2	39	beaches19.jpg	beaches	2	X	NaN	1.13711667060852	k	1	0.631402015686035	2	1
2	40	fields46.jpg	fields	1	X	150	1.16037034988403	k	0	0.21610164642334	2	1
2	41	marshes41.jpg	marshes	2	A	NaN	0.831786870956421	k	1	0.161158800125122	2	1
2	42	waterfalls11.jpg	waterfalls	2	B	NaN	0.674559831619263	k	1	0.168556928634644	2	1
2	43	fields48.jpg	fields	2	X	NaN	1.28120064735413	k	1	0.156641960144043	2	1
2	44	lakes38.jpg	lakes	1	X	295	0.784837961196899	j	1	0.0762777328491211	4	1
2	45	parks10.jpg	parks	1	B	259	1.02997279167175	j	1	0.0368950366973877	4	1
2	46	lighthouses45.jpg	lighthouses	1	X	294	1.52696108818054	j	1	0.0480449199676514	3	1
2	47	lakes28.jpg	lakes	1	X	179	1.56340670585632	j	1	0.249166965484619	2	1
2	48	parks49.jpg	parks	2	B	NaN	1.36243414878845	k	1	0.859031677246094	3	1
2	49	fields54.jpg	fields	2	X	NaN	0.693451404571533	j	0	0.15672779083252	3	1
2	50	beaches33.jpg	beaches	2	X	NaN	1.12447381019592	j	0	0.0826389789581299	4	1
2	51	parks30.jpg	parks	2	B	NaN	1.27946758270264	j	0	0.152604579925537	2	1
2	52	mountains7.jpg	mountains	2	B	NaN	0.800936937332153	k	1	0.165531873703003	2	1
2	53	marshes7.jpg	marshes	1	A	256	0.669270753860474	k	0	0.132286787033081	2	1
2	54	bridges49.jpg	bridges	2	X	NaN	1.35629057884216	k	1	0.0689640045166016	2	1
2	55	lakes51.jpg	lakes	1	X	235	0.663669586181641	k	0	0.101346731185913	2	1
2	56	marshes53.jpg	marshes	1	A	331	0.562856674194336	k	0	0.130369663238525	2	1
2	57	beaches15.jpg	beaches	1	X	244	0.851458787918091	j	1	0.0641255378723145	4	1
2	58	lakes5.jpg	lakes	2	X	NaN	0.761348724365234	j	0	0.0620357990264893	2	1
2	59	bridges20.jpg	bridges	1	X	195	0.791439771652222	j	1	0.0838308334350586	2	1
2	60	mountains32.jpg	mountains	1	B	210	0.614807605743408	j	1	0.0338129997253418	2	1
2	61	canyons30.jpg	canyons	2	A	NaN	0.663885593414307	j	0	0.122608661651611	2	1
2	62	parks7.jpg	parks	1	B	175	0.945650815963745	j	1	0.137905120849609	2	1
2	63	fields10.jpg	fields	2	X	NaN	0.641913890838623	j	0	0.104346036911011	2	1
2	64	bridges3.jpg	bridges	1	X	268	0.705672979354858	j	1	0.103455781936646	2	1
2	65	fields56.jpg	fields	1	X	314	0.785101652145386	j	1	0.147387742996216	2	1
2	66	bridges55.jpg	bridges	2	X	NaN	0.895685195922852	j	0	0.20101261138916	3	1
2	67	waterfalls21.jpg	waterfalls	1	B	257	0.997355699539185	j	1	0.25467848777771	2	1
2	68	canyons1.jpg	canyons	2	A	NaN	0.835028886795044	j	0	0.253469705581665	2	1
2	69	marshes50.jpg	marshes	2	A	NaN	0.796753883361816	j	0	0.234469890594482	2	1
2	70	canyons16.jpg	canyons	1	A	104	0.776093721389771	j	1	0.193181276321411	2	1
2	71	parks31.jpg	parks	1	B	169	0.917257070541382	j	1	0.154563903808594	3	1
2	72	parks2.jpg	parks	2	B	NaN	1.20355701446533	j	0	0.201340913772583	2	1
2	73	waterfalls30.jpg	waterfalls	2	B	NaN	0.829572916030884	j	0	0.164681434631348	2	1
2	74	beaches31.jpg	beaches	1	X	207	1.05131506919861	j	1	0.121011257171631	2	1
2	75	beaches42.jpg	beaches	1	X	196	3.65783929824829	j	1	0.209425687789917	2	1
2	76	lighthouses16.jpg	lighthouses	1	X	269	0.88292932510376	j	1	0.185064792633057	3	1
2	77	fields27.jpg	fields	2	X	NaN	0.478106260299683	j	0	0.15016770362854	2	1
2	78	waterfalls33.jpg	waterfalls	1	B	264	0.514413356781006	j	1	0.0805239677429199	2	1
2	79	parks43.jpg	parks	1	B	220	1.55249261856079	j	1	0.271118640899658	4	1
2	80	forests52.jpg	forests	2	X	NaN	0.66088604927063	j	0	0.173541784286499	2	1
2	81	deserts27.jpg	deserts	2	A	NaN	1.97169661521912	k	1	0.321619749069214	2	1
2	82	waterfalls53.jpg	waterfalls	1	B	217	1.50836133956909	j	1	0.813100814819336	3	1
2	83	mountains29.jpg	mountains	2	B	NaN	1.41135430335999	k	1	0.338059186935425	2	1
2	84	lighthouses56.jpg	lighthouses	1	X	84	1.52315664291382	j	1	0.149128675460815	3	1
2	85	deserts52.jpg	deserts	2	A	NaN	0.986560821533203	j	0	0.156835079193115	3	1
2	86	marshes45.jpg	marshes	2	A	NaN	0.803179740905762	j	0	0.136861801147461	2	1
2	87	deserts34.jpg	deserts	1	A	114	0.982311248779297	j	1	0.272536993026733	2	1
2	88	lighthouses33.jpg	lighthouses	2	X	NaN	0.981157779693604	j	0	0.125568389892578	3	1
2	89	parks41.jpg	parks	2	B	NaN	0.767187118530273	j	0	0.0673086643218994	2	1
2	90	fields21.jpg	fields	2	X	NaN	0.923961162567139	j	0	0.157034873962402	2	1
2	91	forests46.jpg	forests	2	X	NaN	0.596318960189819	j	0	0.123755693435669	3	1
2	92	fields16.jpg	fields	1	X	333	0.56839919090271	j	1	0.0994880199432373	2	1
2	93	lighthouses5.jpg	lighthouses	2	X	NaN	1.13899564743042	j	0	0.0894203186035156	3	1
2	94	lakes55.jpg	lakes	2	X	NaN	0.805519819259644	j	0	0.135132789611816	2	1
2	95	fields51.jpg	fields	2	X	NaN	0.832184791564941	j	0	0.0775587558746338	3	1
2	96	bridges54.jpg	bridges	2	X	NaN	0.434262037277222	j	0	0.312706232070923	2	1
2	97	lighthouses47.jpg	lighthouses	1	X	276	1.80483388900757	j	1	0.296764850616455	3	1
2	98	canyons49.jpg	canyons	2	A	NaN	0.938544511795044	k	1	0.115104913711548	2	1
2	99	marshes40.jpg	marshes	1	A	299	0.646582841873169	k	0	0.101931095123291	2	1
2	100	beaches54.jpg	beaches	2	X	NaN	1.08130097389221	k	1	0.0535597801208496	2	1
2	101	waterfalls48.jpg	waterfalls	1	B	194	1.1470365524292	k	0	0.632348537445068	1	1
2	102	forests25.jpg	forests	1	X	125	0.81249213218689	k	0	0.235024452209473	2	1
2	103	marshes15.jpg	marshes	2	A	NaN	0.4675452709198	k	1	0.162596940994263	2	1
2	104	canyons3.jpg	canyons	2	A	NaN	0.524768590927124	k	1	0.140782117843628	2	1
2	105	marshes24.jpg	marshes	2	A	NaN	0.851794242858887	k	1	0.231459856033325	2	1
2	106	lakes11.jpg	lakes	2	X	NaN	0.744561910629272	k	1	0.204822778701782	2	1
2	107	marshes5.jpg	marshes	1	A	110	0.673206806182861	k	0	0.261409044265747	2	1
2	108	fields7.jpg	fields	2	X	NaN	2.1886031627655	k	1	0.56597638130188	3	1
2	109	lighthouses3.jpg	lighthouses	2	X	NaN	1.48861265182495	j	0	0.313263893127441	2	1
2	110	forests56.jpg	forests	1	X	223	1.39268493652344	j	1	0.173025369644165	3	1
2	111	lakes17.jpg	lakes	1	X	288	0.86483359336853	j	1	0.288814067840576	4	1
2	112	bridges12.jpg	bridges	1	X	106	1.0697774887085	j	1	0.0699269771575928	4	1
2	113	canyons46.jpg	canyons	2	A	NaN	1.11955690383911	k	1	0.187496423721313	2	1
2	114	beaches21.jpg	beaches	2	X	NaN	0.826483011245728	k	1	0.165525913238525	2	1
2	115	canyons35.jpg	canyons	1	A	188	0.483331918716431	k	0	0.0685195922851562	2	1
2	116	forests23.jpg	forests	1	X	198	0.42724084854126	k	0	0.102258920669556	2	1
2	117	canyons34.jpg	canyons	1	A	163	0.348522901535034	k	0	0.0493543148040771	2	1
2	118	beaches4.jpg	beaches	1	X	128	0.927682161331177	k	0	0.658618927001953	2	1
2	119	marshes2.jpg	marshes	2	A	NaN	0.864953517913818	k	1	0.419034719467163	2	1
2	120	waterfalls42.jpg	waterfalls	2	B	NaN	0.600749254226685	k	1	0.361409187316895	2	1
2	121	deserts37.jpg	deserts	1	A	240	0.676882028579712	k	0	0.286772966384888	2	1
2	122	lakes32.jpg	lakes	2	X	NaN	1.30714964866638	k	1	0.367780923843384	1	1
2	123	lighthouses12.jpg	lighthouses	1	X	208	1.2464861869812	k	0	0.418877840042114	1	1
2	124	fields3.jpg	fields	2	X	NaN	1.15852284431458	j	0	0.375354766845703	3	1
2	125	forests27.jpg	forests	2	X	NaN	0.969904184341431	k	1	0.175953149795532	2	1
2	126	lakes21.jpg	lakes	1	X	334	0.802665710449219	k	0	0.129250764846802	2	1
2	127	bridges15.jpg	bridges	2	X	NaN	0.48685359954834	k	1	0.151392936706543	2	1
2	128	canyons42.jpg	canyons	2	A	NaN	0.504690885543823	k	1	0.105401754379272	2	1
2	129	mountains22.jpg	mountains	1	B	330	0.492008686065674	k	0	0.126391887664795	2	1
2	130	canyons33.jpg	canyons	1	A	96	0.458091735839844	k	0	0.13693904876709	2	1
2	131	beaches14.jpg	beaches	1	X	162	1.61278223991394	j	1	0.119425535202026	3	1
2	132	deserts53.jpg	deserts	2	A	NaN	0.367130756378174	k	1	0.10411810874939	2	1
2	133	bridges39.jpg	bridges	2	X	NaN	1.01549744606018	k	1	0.143460750579834	2	1
2	134	fields55.jpg	fields	2	X	NaN	1.90852022171021	j	0	0.254157304763794	2	1
2	135	marshes34.jpg	marshes	2	A	NaN	1.16867852210999	k	1	0.268557786941528	2	1
2	136	marshes25.jpg	marshes	2	A	NaN	0.736284971237183	k	1	0.3035728931427	2	1
2	137	marshes54.jpg	marshes	1	A	131	0.490290641784668	k	0	0.196635961532593	2	1
2	138	bridges46.jpg	bridges	2	X	NaN	0.97814679145813	k	1	0.19403076171875	2	1
2	139	marshes56.jpg	marshes	2	A	NaN	0.749032497406006	k	1	0.000274896621704102	2	1
2	140	lakes41.jpg	lakes	2	X	NaN	1.45132184028625	k	1	0.104163408279419	2	1
2	141	deserts45.jpg	deserts	2	A	NaN	1.35045146942139	k	1	0.288206338882446	2	1
2	142	forests41.jpg	forests	1	X	335	0.776208639144897	k	0	0.23621678352356	2	1
2	143	parks6.jpg	parks	2	B	NaN	1.27019786834717	j	0	0.194397926330566	2	1
2	144	mountains43.jpg	mountains	1	B	246	1.38433814048767	k	0	0.395521879196167	3	1
2	145	lakes52.jpg	lakes	1	X	165	1.19857573509216	j	1	0.129536867141724	3	1
2	146	beaches7.jpg	beaches	1	X	191	0.834031581878662	j	1	0.115312814712524	2	1
2	147	forests34.jpg	forests	2	X	NaN	0.567063808441162	k	1	0.0791738033294678	2	1
2	148	lighthouses15.jpg	lighthouses	1	X	319	0.931772232055664	j	1	0.108057022094727	3	1
2	149	beaches26.jpg	beaches	1	X	275	0.918571710586548	j	1	0.108479976654053	2	1
2	150	waterfalls51.jpg	waterfalls	2	B	NaN	0.692931175231934	k	1	0.146190881729126	2	1
2	151	beaches28.jpg	beaches	2	X	NaN	0.346544504165649	j	0	0.596895217895508	4	1
2	152	beaches24.jpg	beaches	2	X	NaN	0.682909965515137	j	0	0.115197658538818	4	1
2	153	mountains42.jpg	mountains	1	B	312	0.516839742660522	k	0	0.0858988761901855	2	1
2	154	fields19.jpg	fields	1	X	173	1.22305941581726	k	0	0.129968643188477	3	1
2	155	mountains53.jpg	mountains	2	B	NaN	0.663735628128052	k	1	0.116295576095581	2	1
2	156	fields50.jpg	fields	1	X	221	1.35035872459412	j	1	0.117782115936279	2	1
2	157	lighthouses39.jpg	lighthouses	2	X	NaN	0.798357725143433	k	1	0.0901246070861816	2	1
2	158	fields17.jpg	fields	2	X	NaN	2.01904964447021	k	1	0.305081844329834	3	1
2	159	marshes30.jpg	marshes	2	A	NaN	0.595462799072266	k	1	0.110866785049438	3	1
2	160	canyons23.jpg	canyons	1	A	292	0.583468675613403	k	0	0.137906551361084	3	1
2	161	deserts6.jpg	deserts	1	A	230	0.508966684341431	k	0	0.159554958343506	3	1
2	162	lakes24.jpg	lakes	2	X	NaN	0.869800806045532	k	1	0.308811187744141	3	1
2	163	marshes8.jpg	marshes	1	A	202	0.515388250350952	k	0	0.166243076324463	4	1
2	164	bridges35.jpg	bridges	1	X	199	0.893987655639648	k	0	0.0782372951507568	3	1
2	165	forests15.jpg	forests	1	X	178	0.497979640960693	k	0	0.141685724258423	3	1
2	166	bridges14.jpg	bridges	2	X	NaN	1.0185763835907	k	1	0.125700712203979	3	1
2	167	forests35.jpg	forests	2	X	NaN	0.480329990386963	k	1	0.277324199676514	3	1
2	168	lighthouses21.jpg	lighthouses	1	X	95	1.01808762550354	k	0	0.11511492729187	3	1
2	169	lighthouses29.jpg	lighthouses	2	X	NaN	1.07380986213684	k	1	0.229818820953369	2	1
2	170	bridges56.jpg	bridges	2	X	NaN	0.77988076210022	k	1	0.101755857467651	2	1
2	171	lighthouses20.jpg	lighthouses	2	X	NaN	1.36530089378357	k	1	0.20422625541687	2	1
2	172	lakes34.jpg	lakes	1	X	248	1.14053201675415	j	1	0.220972061157227	3	1
2	173	deserts28.jpg	deserts	1	A	142	1.0226354598999	j	1	0.0766067504882812	2	1
2	174	forests33.jpg	forests	2	X	NaN	0.642226696014404	k	1	0.0967476367950439	2	1
2	175	lakes35.jpg	lakes	1	X	113	0.566644191741943	k	0	0.113794803619385	2	1
2	176	lakes18.jpg	lakes	1	X	318	1.05207777023315	k	0	0.177745342254639	2	1
2	177	fields36.jpg	fields	2	X	NaN	1.04541277885437	k	1	0.222656488418579	2	1
2	178	parks21.jpg	parks	2	B	NaN	3.06542134284973	j	0	0.24245285987854	2	1
2	179	forests54.jpg	forests	1	X	214	1.10246133804321	j	1	0.536205768585205	2	1
2	180	canyons41.jpg	canyons	1	A	225	0.763198614120483	k	0	0.161000967025757	2	1
2	181	lakes29.jpg	lakes	1	X	218	0.839193105697632	k	0	0.151602268218994	2	1
2	182	fields47.jpg	fields	1	X	160	0.867924213409424	k	0	0.183950901031494	2	1
2	183	lakes46.jpg	lakes	1	X	197	1.56707954406738	k	0	0.175021886825562	3	1
2	184	mountains11.jpg	mountains	2	B	NaN	0.636684656143188	k	1	0.197964668273926	2	1
2	185	deserts43.jpg	deserts	1	A	324	0.873042583465576	j	1	0.161169767379761	2	1
2	186	deserts2.jpg	deserts	2	A	NaN	0.530411005020142	k	1	0.136416673660278	2	1
2	187	mountains5.jpg	mountains	2	B	NaN	0.501602172851562	k	1	0.180273771286011	2	1
2	188	canyons45.jpg	canyons	2	A	NaN	0.634126663208008	k	1	0.159544944763184	2	1
2	189	deserts47.jpg	deserts	1	A	100	0.720221042633057	k	0	0.19927978515625	2	1
2	190	deserts11.jpg	deserts	2	A	NaN	0.702542543411255	k	1	0.217130184173584	2	1
2	191	marshes36.jpg	marshes	2	A	NaN	0.858030319213867	k	1	0.287555932998657	2	1
2	192	mountains6.jpg	mountains	2	B	NaN	0.58558201789856	k	1	0.196926832199097	2	1
2	193	fields43.jpg	fields	1	X	213	1.04593443870544	j	1	0.181263446807861	2	1
2	194	parks26.jpg	parks	1	B	304	1.12749981880188	k	0	0.180272817611694	2	1
2	195	canyons20.jpg	canyons	1	A	311	0.592099905014038	k	0	0.197354555130005	2	1
2	196	lighthouses35.jpg	lighthouses	1	X	323	1.01180863380432	k	0	0.274397611618042	3	1
2	197	lighthouses14.jpg	lighthouses	2	X	NaN	0.641088724136353	k	1	0.126388072967529	2	1
2	198	marshes55.jpg	marshes	1	A	186	0.708141326904297	k	0	0.139832019805908	2	1
2	199	forests9.jpg	forests	1	X	109	0.737940311431885	k	0	0.200321197509766	2	1
2	200	forests10.jpg	forests	2	X	NaN	0.481490850448608	k	1	0.146978616714478	2	1
2	201	marshes14.jpg	marshes	2	A	NaN	0.59856390953064	k	1	0.170312643051147	2	1
2	202	lighthouses36.jpg	lighthouses	2	X	NaN	0.944875478744507	k	1	0.19426441192627	3	1
2	203	forests7.jpg	forests	2	X	NaN	0.557291269302368	k	1	0.180947780609131	2	1
2	204	fields11.jpg	fields	2	X	NaN	0.784084796905518	k	1	0.221331834793091	2	1
2	205	canyons21.jpg	canyons	2	A	NaN	0.908138036727905	k	1	0.209673881530762	2	1
2	206	beaches10.jpg	beaches	1	X	176	0.851051568984985	k	0	0.0977158546447754	2	1
2	207	forests45.jpg	forests	2	X	NaN	0.593844175338745	k	1	0.17313027381897	2	1
2	208	deserts14.jpg	deserts	2	A	NaN	0.55084228515625	k	1	0.158479690551758	2	1
2	209	deserts22.jpg	deserts	1	A	180	0.685207843780518	k	0	0.169516801834106	2	1
2	210	forests32.jpg	forests	2	X	NaN	0.568269491195679	k	1	0.206184864044189	2	1
2	211	deserts54.jpg	deserts	1	A	158	3.81762266159058	k	0	0.21367073059082	2	1
2	212	marshes9.jpg	marshes	1	A	123	0.60336446762085	k	0	0.202027797698975	2	1
2	213	marshes6.jpg	marshes	2	A	NaN	0.490339994430542	k	1	0.10772705078125	2	1
2	214	beaches6.jpg	beaches	2	X	NaN	0.725001811981201	j	0	0.177057027816772	2	1
2	215	marshes22.jpg	marshes	2	A	NaN	0.637908697128296	k	1	0.108102321624756	2	1
2	216	waterfalls16.jpg	waterfalls	1	B	203	0.720517635345459	k	0	0.206412553787231	2	1
2	217	canyons47.jpg	canyons	2	A	NaN	0.538832902908325	k	1	0.268161773681641	2	1
2	218	canyons26.jpg	canyons	2	A	NaN	0.544800996780396	k	1	0.13820481300354	2	1
2	219	mountains56.jpg	mountains	1	B	137	0.450134515762329	k	0	0.249922752380371	2	1
2	220	bridges2.jpg	bridges	2	X	NaN	0.390523672103882	k	1	0.222947835922241	2	1
2	221	fields29.jpg	fields	1	X	297	0.469655275344849	k	0	0.225541114807129	2	1
2	222	waterfalls19.jpg	waterfalls	1	B	280	0.592265844345093	k	0	0.369596242904663	2	1
2	223	bridges8.jpg	bridges	1	X	255	2.11768555641174	j	1	0.886638164520264	2	1
2	224	canyons4.jpg	canyons	2	A	NaN	0.632737636566162	k	1	0.225032091140747	2	1
2	225	parks37.jpg	parks	1	B	184	1.23775553703308	j	1	0.272274971008301	3	1
2	226	deserts16.jpg	deserts	1	A	307	0.636764764785767	k	0	0.173073768615723	2	1
2	227	bridges43.jpg	bridges	1	X	157	1.2268590927124	j	1	0.100820541381836	2	1
2	228	waterfalls34.jpg	waterfalls	2	B	NaN	0.826369762420654	k	1	0.206171274185181	2	1
2	229	forests47.jpg	forests	1	X	305	0.547613859176636	k	0	0.166245937347412	2	1
2	230	forests6.jpg	forests	1	X	153	2.18695974349976	k	0	0.301386117935181	2	1
2	231	deserts40.jpg	deserts	2	A	NaN	1.07262492179871	k	1	0.248747825622559	2	1
2	232	bridges38.jpg	bridges	2	X	NaN	1.16016602516174	j	0	0.403730630874634	3	1
2	233	fields28.jpg	fields	2	X	NaN	0.809229850769043	k	1	0.263747215270996	2	1
2	234	deserts5.jpg	deserts	2	A	NaN	1.10348677635193	k	1	0.257057666778564	2	1
2	235	beaches5.jpg	beaches	2	X	NaN	1.22857069969177	j	0	0.166435480117798	3	1
2	236	mountains51.jpg	mountains	2	B	NaN	0.669166564941406	k	1	0.23709774017334	2	1
2	237	canyons6.jpg	canyons	2	A	NaN	0.44724178314209	k	1	0.0815536975860596	2	1
2	238	beaches43.jpg	beaches	2	X	NaN	1.01361060142517	j	0	0.10438346862793	3	1
2	239	parks48.jpg	parks	2	B	NaN	1.11458683013916	k	1	0.0785126686096191	2	1
2	240	beaches32.jpg	beaches	2	X	NaN	1.58845400810242	j	0	0.17072868347168	3	1
2	241	marshes38.jpg	marshes	1	A	263	2.21229338645935	j	1	0.263270616531372	2	1
2	242	beaches38.jpg	beaches	1	X	313	1.16550254821777	k	0	0.221467733383179	2	1
2	243	deserts7.jpg	deserts	1	A	252	1.14019179344177	k	0	0.286524772644043	3	1
2	244	fields5.jpg	fields	2	X	NaN	1.6587016582489	j	0	0.152200698852539	2	1
2	245	parks22.jpg	parks	1	B	308	1.38857769966125	k	0	0.215804815292358	2	1
2	246	canyons22.jpg	canyons	1	A	154	1.99051022529602	k	0	0.163927555084229	2	1
2	247	canyons11.jpg	canyons	2	A	NaN	0.903579950332642	k	1	0.20127534866333	2	1
2	248	deserts56.jpg	deserts	2	A	NaN	0.671752214431763	k	1	0.250693798065186	2	1
2	249	deserts20.jpg	deserts	1	A	174	0.834966421127319	k	0	0.22736930847168	2	1
2	250	waterfalls36.jpg	waterfalls	2	B	NaN	0.777106761932373	k	1	0.304171085357666	2	1
2	251	waterfalls20.jpg	waterfalls	1	B	135	0.783524751663208	k	0	0.174716949462891	2	1
2	252	mountains36.jpg	mountains	2	B	NaN	0.688643217086792	k	1	0.238812685012817	2	1
2	253	marshes49.jpg	marshes	1	A	320	0.815777063369751	k	0	0.250838279724121	2	1
2	254	bridges28.jpg	bridges	2	X	NaN	0.626326084136963	k	1	0.326217651367188	2	1
2	255	waterfalls38.jpg	waterfalls	1	B	229	0.777958869934082	k	0	0.220997095108032	2	1
2	256	waterfalls5.jpg	waterfalls	1	B	187	1.52666234970093	j	1	0.195772647857666	2	1
2	257	lakes56.jpg	lakes	2	X	NaN	0.715625286102295	k	1	0.167666912078857	2	1
2	258	beaches12.jpg	beaches	1	X	86	0.589279651641846	k	0	0.228764295578003	2	1
2	259	lakes16.jpg	lakes	1	X	185	0.654428243637085	k	0	0.274153709411621	2	1
2	260	mountains41.jpg	mountains	2	B	NaN	0.630830764770508	k	1	0.218121767044067	2	1
2	261	mountains3.jpg	mountains	1	B	250	0.880185842514038	k	0	0.218311786651611	2	1
2	262	lighthouses43.jpg	lighthouses	2	X	NaN	1.80391955375671	k	1	0.267458915710449	2	1
2	263	lakes36.jpg	lakes	1	X	161	1.03012490272522	k	0	0.227263450622559	2	1
2	264	marshes29.jpg	marshes	1	A	279	0.713878631591797	k	0	0.229604482650757	2	1
2	265	deserts1.jpg	deserts	1	A	219	1.25427460670471	k	0	0.473971605300903	2	1
2	266	beaches20.jpg	beaches	2	X	NaN	2.12375473976135	j	0	0.364712953567505	2	1
2	267	beaches9.jpg	beaches	1	X	270	1.12342381477356	j	1	0.221354007720947	2	1
2	268	deserts44.jpg	deserts	1	A	183	0.833336591720581	k	0	0.258857011795044	2	1
2	269	marshes42.jpg	marshes	1	A	134	0.73412036895752	k	0	0.549443244934082	2	1
2	270	waterfalls17.jpg	waterfalls	1	B	145	1.11287093162537	k	0	1.33649754524231	2	1
2	271	parks38.jpg	parks	2	B	NaN	0.963550567626953	k	1	0.210304021835327	2	1
2	272	waterfalls23.jpg	waterfalls	2	B	NaN	0.654576778411865	k	1	0.301313877105713	2	1
2	273	deserts21.jpg	deserts	2	A	NaN	0.636647939682007	k	1	0.198061227798462	2	1
2	274	bridges50.jpg	bridges	1	X	251	0.98136830329895	j	1	0.233745813369751	2	1
2	275	bridges6.jpg	bridges	2	X	NaN	1.08871579170227	k	1	0.214002847671509	2	1
2	276	marshes32.jpg	marshes	1	A	193	1.2026584148407	k	0	0.374377727508545	2	1
2	277	fields18.jpg	fields	2	X	NaN	2.16714668273926	k	1	0.302065134048462	2	1
2	278	deserts8.jpg	deserts	2	A	NaN	1.02549958229065	k	1	0.225597620010376	2	1
2	279	canyons55.jpg	canyons	2	A	NaN	1.95719027519226	k	1	0.43787693977356	3	1
2	280	waterfalls29.jpg	waterfalls	1	B	233	1.05890464782715	k	0	0.141626834869385	2	1
2	281	fields35.jpg	fields	1	X	227	1.07459592819214	k	0	0.658714294433594	1	1
2	282	mountains49.jpg	mountains	1	B	293	0.857930898666382	k	0	0.150751829147339	2	1
2	283	lakes50.jpg	lakes	2	X	NaN	1.08096075057983	j	0	0.102341890335083	3	1
2	284	lighthouses50.jpg	lighthouses	1	X	121	0.968719959259033	j	1	0.118744611740112	2	1
2	285	parks28.jpg	parks	1	B	159	0.744600534439087	k	0	1.00271439552307	2	1
2	286	marshes31.jpg	marshes	1	A	171	1.06714487075806	k	0	0.0441689491271973	2	1
2	287	canyons28.jpg	canyons	1	A	245	0.683218717575073	k	0	0.0746228694915771	2	1
2	288	beaches1.jpg	beaches	1	X	328	0.824332237243652	j	1	0.133244752883911	2	1
2	289	waterfalls43.jpg	waterfalls	2	B	NaN	0.566283702850342	k	1	0.128256797790527	2	1
2	290	fields9.jpg	fields	2	X	NaN	0.567980766296387	k	1	0.0999407768249512	2	1
2	291	parks51.jpg	parks	1	B	290	0.523319482803345	k	0	0.134314775466919	2	1
2	292	waterfalls22.jpg	waterfalls	1	B	152	0.726713418960571	k	0	0.0748257637023926	2	1
2	293	forests17.jpg	forests	2	X	NaN	0.593341588973999	k	1	0.3446946144104	1	1
2	294	beaches45.jpg	beaches	1	X	278	0.929885387420654	j	1	0.170683860778809	2	1
2	295	parks47.jpg	parks	1	B	325	0.641586780548096	k	0	0.139808654785156	2	1
2	296	lakes42.jpg	lakes	2	X	NaN	0.972787380218506	k	1	0.138791561126709	2	1
2	297	fields41.jpg	fields	2	X	NaN	0.611767053604126	k	1	0.104570627212524	2	1
2	298	waterfalls39.jpg	waterfalls	2	B	NaN	0.596922874450684	k	1	0.11226487159729	2	1
2	299	fields42.jpg	fields	1	X	239	1.46155786514282	j	1	0.106294870376587	2	1
2	300	bridges53.jpg	bridges	1	X	260	0.659618616104126	k	0	0.0872676372528076	2	1
2	301	parks36.jpg	parks	1	B	149	1.18628430366516	j	1	0.168957710266113	2	1
2	302	mountains23.jpg	mountains	2	B	NaN	0.526341915130615	k	1	0.152425765991211	2	1
2	303	fields20.jpg	fields	1	X	102	0.549832105636597	k	0	0.152402877807617	2	1
2	304	lighthouses27.jpg	lighthouses	2	X	NaN	0.748751163482666	k	1	0.206416130065918	2	1
2	305	parks50.jpg	parks	2	B	NaN	1.77573871612549	k	1	0.132771730422974	2	1
2	306	deserts55.jpg	deserts	1	A	258	0.90775465965271	k	0	0.231405735015869	2	1
2	307	fields53.jpg	fields	1	X	140	1.11023163795471	k	0	0.155817747116089	2	1
2	308	deserts15.jpg	deserts	2	A	NaN	0.552217721939087	k	1	0.194900989532471	2	1
2	309	deserts35.jpg	deserts	1	A	271	0.755916595458984	k	0	0.235576868057251	2	1
2	310	lighthouses52.jpg	lighthouses	1	X	215	0.43773889541626	k	0	0.298058748245239	2	1
2	311	lighthouses26.jpg	lighthouses	2	X	NaN	0.677423715591431	j	0	0.206373929977417	2	1
2	312	forests16.jpg	forests	2	X	NaN	0.74870777130127	k	1	0.277416706085205	2	1
2	313	forests30.jpg	forests	2	X	NaN	0.630042791366577	k	1	0.258081197738647	2	1
2	314	bridges30.jpg	bridges	2	X	NaN	1.07744336128235	j	0	0.488502502441406	3	1
2	315	fields52.jpg	fields	1	X	98	0.909562110900879	k	0	0.154245376586914	2	1
2	316	lakes47.jpg	lakes	2	X	NaN	1.01158905029297	j	0	0.104323863983154	2	1
2	317	mountains20.jpg	mountains	1	B	97	0.620510578155518	k	0	0.196511030197144	2	1
2	318	lighthouses49.jpg	lighthouses	1	X	126	0.53752326965332	k	0	0.139892816543579	2	1
2	319	lighthouses9.jpg	lighthouses	2	X	NaN	1.60091376304626	k	1	0.17176079750061	1	1
2	320	forests50.jpg	forests	1	X	322	1.69130182266235	k	0	0.175680160522461	2	1
2	321	bridges52.jpg	bridges	2	X	NaN	1.05326271057129	j	0	0.174036741256714	3	1
2	322	marshes19.jpg	marshes	2	A	NaN	0.80872631072998	j	0	0.0945045948028564	2	1
2	323	deserts41.jpg	deserts	1	A	289	0.468335866928101	k	0	0.173395872116089	2	1
2	324	parks44.jpg	parks	1	B	241	0.419249773025513	k	0	0.124237298965454	2	1
2	325	mountains26.jpg	mountains	2	B	NaN	0.409934759140015	k	1	0.0835347175598145	2	1
2	326	fields6.jpg	fields	1	X	267	1.06543350219727	j	1	0.0965020656585693	3	1
2	327	bridges23.jpg	bridges	1	X	302	1.03884792327881	k	0	0.30131983757019	2	1
2	328	lakes45.jpg	lakes	1	X	120	1.55060505867004	k	0	0.22943902015686	2	1
2	329	canyons8.jpg	canyons	1	A	129	0.912947654724121	k	0	0.276628732681274	2	1
2	330	canyons25.jpg	canyons	2	A	NaN	2.16129779815674	k	1	0.861106634140015	2	1
2	331	parks53.jpg	parks	2	B	NaN	1.12240600585938	j	0	0.300384044647217	2	1
2	332	fields30.jpg	fields	1	X	87	1.02376270294189	j	1	0.124830722808838	2	1
2	333	lakes54.jpg	lakes	1	X	127	0.599653959274292	k	0	0.153219699859619	2	1
2	334	waterfalls45.jpg	waterfalls	2	B	NaN	0.542476654052734	k	1	0.0419816970825195	2	1
2	335	forests5.jpg	forests	2	X	NaN	0.883836269378662	k	1	0.447275161743164	2	1
2	336	waterfalls7.jpg	waterfalls	2	B	NaN	1.14255666732788	k	1	0.144891738891602	2	1
2	337	canyons9.jpg	canyons	1	A	286	0.683031797409058	k	0	0.415277481079102	2	1
2	338	fields34.jpg	fields	1	X	306	0.867097854614258	k	0	0.187992811203003	2	1
2	339	beaches52.jpg	beaches	1	X	89	0.711016178131104	k	0	0.242666482925415	2	1
2	340	bridges1.jpg	bridges	1	X	103	0.619748830795288	k	0	0.104694843292236	2	1
2	341	mountains30.jpg	mountains	2	B	NaN	0.567002773284912	k	1	0.110037326812744	2	1
2	342	lighthouses23.jpg	lighthouses	2	X	NaN	0.998374223709106	j	0	0.11816668510437	2	1
2	343	mountains54.jpg	mountains	2	B	NaN	0.573965787887573	k	1	0.130773782730103	2	1
2	344	lighthouses37.jpg	lighthouses	1	X	90	0.870630979537964	j	1	0.0104939937591553	1	1
2	345	marshes23.jpg	marshes	1	A	232	0.898853778839111	j	1	0.254621982574463	2	1
2	346	bridges22.jpg	bridges	1	X	211	0.901830911636353	k	0	0.212604284286499	2	1
2	347	waterfalls9.jpg	waterfalls	1	B	332	0.705989837646484	k	0	0.164618730545044	2	1
2	348	lighthouses22.jpg	lighthouses	2	X	NaN	0.887330770492554	j	0	0.25274658203125	2	1
2	349	marshes3.jpg	marshes	2	A	NaN	1.36105489730835	k	1	0.235653162002563	2	1
2	350	waterfalls49.jpg	waterfalls	2	B	NaN	0.715109825134277	j	0	0.265087842941284	2	1
2	351	waterfalls4.jpg	waterfalls	2	B	NaN	0.811874389648438	j	0	0.335383653640747	2	1
2	352	lakes12.jpg	lakes	2	X	NaN	0.876529455184937	k	1	0.237597942352295	2	1
2	353	beaches18.jpg	beaches	1	X	212	0.950546979904175	k	0	0.251200675964355	2	1
2	354	waterfalls26.jpg	waterfalls	1	B	108	0.640584945678711	k	0	0.228855848312378	2	1
2	355	canyons40.jpg	canyons	1	A	116	0.855574607849121	k	0	0.242309808731079	2	1
2	356	mountains12.jpg	mountains	2	B	NaN	0.821224689483643	k	1	0.292273283004761	2	1
2	357	bridges42.jpg	bridges	1	X	170	0.953331232070923	j	1	0.167965888977051	2	1
2	358	bridges41.jpg	bridges	2	X	NaN	0.651763677597046	k	1	0.276367664337158	2	1
2	359	mountains24.jpg	mountains	2	B	NaN	0.654082775115967	k	1	0.226670742034912	2	1
2	360	parks3.jpg	parks	1	B	181	1.07745242118835	j	1	0.246428966522217	2	1
2	361	lakes23.jpg	lakes	2	X	NaN	0.820841789245605	k	1	0.175778865814209	2	1
2	362	forests43.jpg	forests	1	X	265	0.724412679672241	k	0	0.288601398468018	2	1
2	363	lighthouses32.jpg	lighthouses	1	X	112	1.23331904411316	j	1	0.373888254165649	2	1
2	364	bridges45.jpg	bridges	1	X	147	1.34050917625427	k	0	0.385866165161133	2	1
2	365	marshes20.jpg	marshes	1	A	216	1.50218486785889	k	0	0.280975103378296	2	1
2	366	lakes10.jpg	lakes	1	X	298	1.00014495849609	j	1	0.325636625289917	3	1
2	367	waterfalls15.jpg	waterfalls	2	B	NaN	0.984452724456787	k	1	0.211691379547119	2	1
2	368	beaches16.jpg	beaches	1	X	118	0.887998580932617	k	0	0.236392736434937	2	1
2	369	beaches41.jpg	beaches	1	X	141	0.660411834716797	k	0	0.24815821647644	2	1
2	370	lighthouses7.jpg	lighthouses	1	X	190	0.83745265007019	k	0	0.215753316879272	2	1
2	371	marshes35.jpg	marshes	1	A	144	0.645439147949219	k	0	0.0347745418548584	2	1
2	372	marshes21.jpg	marshes	2	A	NaN	0.805872678756714	k	1	0.240545749664307	2	1
2	373	bridges44.jpg	bridges	1	X	266	0.901587963104248	k	0	0.158344745635986	2	1
2	374	fields12.jpg	fields	2	X	NaN	0.976594686508179	j	0	0.38457179069519	3	1
2	375	mountains15.jpg	mountains	1	B	226	0.8817298412323	k	0	0.18494987487793	2	1
2	376	lakes37.jpg	lakes	2	X	NaN	0.882395267486572	k	1	0.236567497253418	2	1
2	377	forests53.jpg	forests	1	X	122	1.01777410507202	k	0	0.307759284973145	2	1
2	378	mountains31.jpg	mountains	2	B	NaN	1.43107581138611	k	1	0.387438058853149	2	1
2	379	lakes27.jpg	lakes	2	X	NaN	0.937805652618408	k	1	0.256157636642456	2	1
2	380	bridges18.jpg	bridges	2	X	NaN	1.56146955490112	k	1	0.580090761184692	2	1
2	381	beaches30.jpg	beaches	2	X	NaN	1.93191313743591	k	1	0.390176773071289	1	1
2	382	deserts25.jpg	deserts	2	A	NaN	1.1262149810791	j	0	0.317580699920654	1	1
2	383	mountains13.jpg	mountains	1	B	130	0.797890424728394	j	1	0.155809164047241	1	1
2	384	waterfalls47.jpg	waterfalls	2	B	NaN	1.32433891296387	k	1	0.233362913131714	2	1
2	385	canyons54.jpg	canyons	1	A	249	0.717372179031372	j	1	0.154549360275269	1	1
2	386	fields32.jpg	fields	1	X	273	0.931931257247925	j	1	0.299104690551758	3	1
2	387	canyons2.jpg	canyons	2	A	NaN	0.59443187713623	k	1	0.154757738113403	2	1
2	388	deserts9.jpg	deserts	2	A	NaN	0.722246646881104	k	1	0.0932936668395996	2	1
2	389	forests19.jpg	forests	1	X	247	0.598220586776733	k	0	0.0847992897033691	2	1
2	390	marshes39.jpg	marshes	1	A	151	0.530847787857056	k	0	0.238255262374878	2	1
2	391	canyons36.jpg	canyons	1	A	261	0.690254926681519	k	0	0.251657962799072	2	1
2	392	mountains10.jpg	mountains	1	B	164	0.734872817993164	k	0	0.142298221588135	2	1
2	393	lakes19.jpg	lakes	1	X	93	0.790622711181641	j	1	0.203087329864502	3	1
2	394	marshes13.jpg	marshes	2	A	NaN	0.78534460067749	k	1	0.178699254989624	2	1
2	395	parks42.jpg	parks	2	B	NaN	0.790329217910767	j	0	0.189750671386719	3	1
2	396	waterfalls31.jpg	waterfalls	1	B	284	0.577048063278198	k	0	0.167064666748047	2	1
2	397	marshes52.jpg	marshes	2	A	NaN	0.776773691177368	k	1	0.261703968048096	2	1
2	398	waterfalls28.jpg	waterfalls	1	B	321	0.56010890007019	k	0	0.228788137435913	2	1
2	399	forests11.jpg	forests	1	X	243	0.506260395050049	k	0	0.210415124893188	2	1
2	400	bridges21.jpg	bridges	1	X	222	0.993461847305298	j	1	0.162939786911011	2	1
2	401	waterfalls14.jpg	waterfalls	1	B	132	0.46419095993042	k	0	0.174581050872803	2	1
2	402	parks40.jpg	parks	2	B	NaN	0.4568932056427	k	1	0.413644552230835	2	1
2	403	bridges48.jpg	bridges	1	X	296	0.725328683853149	j	1	0.265363693237305	2	1
2	404	deserts51.jpg	deserts	1	A	148	0.542037963867188	j	1	0.195264101028442	2	1
2	405	parks8.jpg	parks	2	B	NaN	0.486835718154907	k	1	0.190183162689209	2	1
2	406	mountains35.jpg	mountains	2	B	NaN	0.53902792930603	k	1	0.237396717071533	2	1
2	407	forests26.jpg	forests	1	X	310	0.531513929367065	k	0	0.177695512771606	2	1
2	408	mountains50.jpg	mountains	1	B	117	0.655632257461548	k	0	0.153637886047363	2	1
2	409	lakes2.jpg	lakes	1	X	205	0.784794807434082	j	1	0.13811206817627	2	1
2	410	deserts4.jpg	deserts	1	A	91	0.63622260093689	j	1	0.127460956573486	2	1
2	411	lighthouses54.jpg	lighthouses	1	X	254	1.79948973655701	k	0	0.279253959655762	2	1
2	412	mountains38.jpg	mountains	2	B	NaN	0.815982103347778	j	0	0.061913013458252	2	1
2	413	mountains4.jpg	mountains	1	B	201	0.550758600234985	j	1	0.0552370548248291	2	1
2	414	mountains39.jpg	mountains	1	B	282	0.741720914840698	j	1	0.0900321006774902	2	1
2	415	bridges9.jpg	bridges	1	X	224	0.894941091537476	k	0	0.181249141693115	2	1
2	416	bridges4.jpg	bridges	1	X	94	0.85247278213501	k	0	0.127984762191772	2	1
2	417	canyons48.jpg	canyons	1	A	237	0.764744758605957	k	0	0.120703935623169	2	1
2	418	parks13.jpg	parks	2	B	NaN	1.07256531715393	j	0	0.376463890075684	1	1
2	419	parks12.jpg	parks	1	B	139	1.16614937782288	j	1	0.85718560218811	4	1
2	420	marshes16.jpg	marshes	2	A	NaN	1.0375645160675	k	1	0.162845849990845	2	1
2	421	lighthouses17.jpg	lighthouses	2	X	NaN	0.884598731994629	j	0	0.094099760055542	2	1
2	422	bridges40.jpg	bridges	2	X	NaN	1.02487540245056	j	0	0.205930948257446	1	1
2	423	bridges13.jpg	bridges	1	X	133	0.820225715637207	j	1	0.251292943954468	3	1
2	424	parks46.jpg	parks	2	B	NaN	0.909746646881104	j	0	0.186422824859619	2	1
2	425	mountains17.jpg	mountains	1	B	287	0.801408290863037	k	0	0.100991249084473	2	1
2	426	waterfalls56.jpg	waterfalls	2	B	NaN	0.768384695053101	k	1	0.200559854507446	2	1
2	427	bridges26.jpg	bridges	1	X	119	0.799710273742676	j	1	0.305457353591919	3	1
2	428	beaches51.jpg	beaches	1	X	285	0.917796611785889	k	0	0.13982367515564	2	1
2	429	mountains18.jpg	mountains	2	B	NaN	1.84979820251465	k	1	0.256601810455322	2	1
2	430	forests22.jpg	forests	2	X	NaN	1.28594326972961	k	1	0.258351564407349	2	1
2	431	fields49.jpg	fields	2	X	NaN	0.927605867385864	j	0	0.241613864898682	3	1
2	432	lighthouses25.jpg	lighthouses	1	X	326	0.977632761001587	k	0	0.199652671813965	2	1
2	433	deserts23.jpg	deserts	2	A	NaN	0.884061574935913	k	1	0.25746488571167	2	1
2	434	parks1.jpg	parks	2	B	NaN	0.835863351821899	j	0	0.118160963058472	2	1
2	435	mountains16.jpg	mountains	2	B	NaN	0.846658706665039	k	1	0.174167633056641	2	1
2	436	beaches36.jpg	beaches	1	X	182	0.770715475082397	j	1	0.254776954650879	3	1
2	437	lakes49.jpg	lakes	2	X	NaN	2.29318690299988	j	0	0.599624633789062	2	1
2	438	lighthouses6.jpg	lighthouses	1	X	177	0.794824361801147	k	0	0.226254463195801	2	1
2	439	lighthouses51.jpg	lighthouses	2	X	NaN	2.03291177749634	k	1	0.706262826919556	2	1
2	440	lakes3.jpg	lakes	2	X	NaN	1.35865759849548	j	0	0.272280931472778	2	1
2	441	parks4.jpg	parks	1	B	231	0.975068092346191	j	1	0.0840291976928711	2	1
2	442	fields22.jpg	fields	2	X	NaN	0.800137042999268	k	1	0.090839147567749	2	1
2	443	mountains40.jpg	mountains	1	B	155	0.484812021255493	k	0	0.134017467498779	2	1
2	444	fields4.jpg	fields	2	X	NaN	0.643378734588623	k	1	0.112874269485474	2	1
2	445	mountains21.jpg	mountains	1	B	238	0.51508355140686	k	0	0.160282135009766	2	1
2	446	beaches17.jpg	beaches	1	X	301	0.912450790405273	j	1	0.827145338058472	1	1
2	447	lakes44.jpg	lakes	1	X	309	0.842963695526123	j	1	0.186387300491333	3	1
2	448	waterfalls27.jpg	waterfalls	2	B	NaN	0.637164354324341	k	1	0.186617612838745	2	1
2	449	beaches37.jpg	beaches	2	X	NaN	1.69677639007568	k	1	0.237972736358643	2	1
2	450	waterfalls35.jpg	waterfalls	2	B	NaN	0.53132176399231	k	1	0.0927507877349854	2	1
2	451	lighthouses2.jpg	lighthouses	2	X	NaN	0.408781051635742	k	1	0.644646644592285	2	1
2	452	canyons14.jpg	canyons	1	A	316	1.21244740486145	j	1	0.136101484298706	2	1
2	453	beaches49.jpg	beaches	2	X	NaN	1.41411542892456	k	1	0.285059928894043	2	1
2	454	waterfalls13.jpg	waterfalls	2	B	NaN	0.816082239151001	j	0	0.281157732009888	1	1
2	455	bridges33.jpg	bridges	2	X	NaN	1.16013407707214	j	0	0.239843845367432	2	1
2	456	forests51.jpg	forests	2	X	NaN	0.711942434310913	k	1	0.148717641830444	2	1
2	457	deserts12.jpg	deserts	1	A	168	0.582262516021729	k	0	0.160582780838013	2	1
2	458	mountains28.jpg	mountains	1	B	262	0.597982883453369	k	0	0.184528350830078	2	1
2	459	canyons10.jpg	canyons	2	A	NaN	0.684028148651123	k	1	0.314440965652466	2	1
2	460	parks24.jpg	parks	1	B	272	1.1137535572052	k	0	0.541449546813965	2	1
2	461	lighthouses53.jpg	lighthouses	1	X	166	1.23448920249939	j	1	0.183948993682861	3	1
2	462	lighthouses28.jpg	lighthouses	2	X	NaN	0.718697547912598	j	0	0.0917379856109619	2	1
2	463	lighthouses10.jpg	lighthouses	1	X	204	0.982808828353882	k	0	0.140161037445068	2	1
2	464	waterfalls40.jpg	waterfalls	2	B	NaN	0.894164800643921	k	1	0.316479682922363	2	1
2	465	forests3.jpg	forests	2	X	NaN	1.94119572639465	k	1	0.523682117462158	1	1
2	466	marshes10.jpg	marshes	2	A	NaN	0.926269292831421	j	0	0.310311794281006	1	1
2	467	parks35.jpg	parks	1	B	115	1.30465126037598	k	0	0.294352054595947	2	1
2	468	beaches35.jpg	beaches	2	X	NaN	1.79652857780457	k	1	0.526779174804688	1	1
2	469	forests20.jpg	forests	2	X	NaN	1.48845815658569	j	0	1.02281808853149	2	1
2	470	beaches25.jpg	beaches	2	X	NaN	1.02749419212341	k	1	0.334397077560425	2	1
2	471	forests18.jpg	forests	2	X	NaN	1.58163690567017	j	0	0.602942228317261	3	1
2	472	canyons39.jpg	canyons	1	A	200	1.15724539756775	k	0	0.842977046966553	2	1
2	473	mountains55.jpg	mountains	1	B	105	1.50811266899109	k	0	0.577662706375122	2	1
2	474	lakes1.jpg	lakes	2	X	NaN	1.0613956451416	k	1	0.367044687271118	2	1
2	475	lakes26.jpg	lakes	2	X	NaN	1.46663451194763	k	1	0.312814235687256	2	1
2	476	forests28.jpg	forests	1	X	315	1.15242695808411	k	0	0.153069972991943	2	1
2	477	beaches29.jpg	beaches	2	X	NaN	0.812407732009888	k	1	0.295185565948486	2	1
2	478	parks9.jpg	parks	1	B	143	1.01108407974243	k	0	0.288851737976074	2	1
2	479	lighthouses30.jpg	lighthouses	1	X	192	1.33788156509399	k	0	0.278232574462891	2	1
2	480	waterfalls12.jpg	waterfalls	1	B	124	1.03229093551636	k	0	0.401645183563232	2	1
2	481	waterfalls41.jpg	waterfalls	1	B	172	0.692868947982788	k	0	0.236335515975952	2	1
2	482	bridges5.jpg	bridges	2	X	NaN	0.892448663711548	k	1	0.323730230331421	2	1
2	483	bridges16.jpg	bridges	2	X	NaN	1.0323338508606	j	0	0.170638799667358	2	1
2	484	beaches8.jpg	beaches	2	X	NaN	0.756391763687134	k	1	0.206082344055176	2	1
2	485	parks15.jpg	parks	1	B	92	0.661399602890015	k	0	0.261072397232056	2	1
2	486	beaches22.jpg	beaches	2	X	NaN	0.993464708328247	j	0	0.164805889129639	2	1
2	487	parks19.jpg	parks	2	B	NaN	1.06852340698242	k	1	0.238539695739746	2	1
2	488	forests44.jpg	forests	1	X	167	0.816462755203247	k	0	0.21650767326355	2	1
2	489	beaches2.jpg	beaches	1	X	99	1.53030276298523	j	1	0.21125864982605	2	1
2	490	waterfalls6.jpg	waterfalls	2	B	NaN	0.765656471252441	k	1	0.156734943389893	2	1
2	491	forests37.jpg	forests	1	X	146	0.548301458358765	k	0	0.172929763793945	2	1
2	492	lighthouses13.jpg	lighthouses	2	X	NaN	0.731717586517334	k	1	0.205959320068359	2	1
2	493	lakes8.jpg	lakes	2	X	NaN	0.592280864715576	k	1	0.280711650848389	2	1
2	494	forests38.jpg	forests	2	X	NaN	0.811809539794922	k	1	0.217487573623657	2	1
2	495	marshes4.jpg	marshes	1	A	283	0.624144554138184	k	0	0.15308690071106	2	1
2	496	parks14.jpg	parks	2	B	NaN	0.859570026397705	k	1	0.214116811752319	2	1
2	497	canyons24.jpg	canyons	1	A	329	1.73998379707336	k	0	0.93817663192749	2	1
2	498	forests14.jpg	forests	1	X	277	0.753214359283447	k	0	0.255857944488525	2	1
2	499	waterfalls46.jpg	waterfalls	1	B	300	0.572256088256836	k	0	0.161190748214722	2	1
2	500	canyons56.jpg	canyons	2	A	NaN	0.688667774200439	k	1	0.164150714874268	2	1
2	501	deserts24.jpg	deserts	2	A	NaN	0.717687845230103	k	1	0.142733812332153	2	1
2	502	deserts19.jpg	deserts	2	A	NaN	0.575715065002441	k	1	0.144845485687256	2	1
2	503	deserts38.jpg	deserts	2	A	NaN	0.653846740722656	k	1	0.142381906509399	2	1
3	0	bridges32.jpg	bridges	1	A	191	4.04291296005249	j	1	2.49334049224854	4	0
3	1	deserts30.jpg	deserts	2	X	NaN	2.96669483184814	k	1	1.64165091514587	3	0
3	2	mountains44.jpg	mountains	1	B	155	3.62921166419983	k	0	1.92915201187134	2	0
3	3	canyons8.jpg	canyons	1	X	308	2.19577765464783	j	1	1.76019883155823	2	0
3	4	forests20.jpg	forests	1	A	219	4.33409476280212	k	0	1.86325931549072	3	0
3	5	marshes4.jpg	marshes	1	X	208	2.50434160232544	j	1	0.833069086074829	3	0
3	6	lighthouses6.jpg	lighthouses	1	X	130	3.019038438797	k	0	1.19912958145142	2	0
3	7	parks38.jpg	parks	2	A	NaN	2.702556848526	j	0	0.893233776092529	3	0
3	8	mountains15.jpg	mountains	2	B	NaN	2.78616786003113	k	1	1.17276287078857	2	0
3	9	marshes31.jpg	marshes	1	X	134	2.50268888473511	j	1	0.816491842269897	4	0
3	10	lighthouses7.jpg	lighthouses	2	X	NaN	1.6331353187561	j	0	0.682462215423584	4	0
3	11	parks3.jpg	parks	2	A	NaN	2.06853866577148	j	0	0.802605628967285	4	0
3	12	deserts18.jpg	deserts	1	X	176	2.91888785362244	k	0	0.75487756729126	2	0
3	13	lakes31.jpg	lakes	2	X	NaN	2.19021797180176	j	0	0.538760423660278	4	0
3	14	fields12.jpg	fields	1	B	223	1.91480469703674	j	1	0.9078369140625	4	0
3	15	forests48.jpg	forests	1	A	161	1.49612069129944	k	0	0.635432481765747	2	0
3	16	mountains21.jpg	mountains	2	B	NaN	3.34261512756348	k	1	1.23485851287842	3	0
3	17	lakes48.jpg	lakes	1	X	98	1.65203094482422	j	1	0.423704862594604	4	0
3	18	waterfalls3.jpg	waterfalls	2	X	NaN	1.7782576084137	k	1	0.634278297424316	2	0
3	19	mountains38.jpg	mountains	1	B	268	4.39124345779419	k	0	0.498742818832397	2	0
3	20	lakes55.jpg	lakes	1	X	298	2.45406436920166	j	1	0.624687910079956	4	0
3	21	bridges40.jpg	bridges	1	A	203	1.11545896530151	j	1	0.507505655288696	4	0
3	22	beaches45.jpg	beaches	1	B	88	2.21590113639832	j	1	0.456888914108276	4	0
3	23	waterfalls15.jpg	waterfalls	2	X	NaN	1.56138682365417	k	1	0.995870113372803	3	0
3	24	parks30.jpg	parks	1	A	91	1.74391150474548	j	1	0.328378438949585	4	0
3	25	canyons26.jpg	canyons	1	X	150	2.08922576904297	k	0	0.593373775482178	3	0
3	26	lighthouses50.jpg	lighthouses	1	X	252	1.3523530960083	j	1	0.381217241287231	4	0
3	27	waterfalls24.jpg	waterfalls	2	X	NaN	2.94487142562866	j	0	1.03013849258423	3	0
3	28	parks48.jpg	parks	1	A	280	1.68621468544006	j	1	0.568717956542969	3	0
3	29	forests56.jpg	forests	2	A	NaN	1.77733278274536	k	1	0.50931191444397	2	0
3	30	bridges54.jpg	bridges	2	A	NaN	2.19292855262756	k	1	0.396460771560669	2	0
3	31	lakes43.jpg	lakes	1	X	221	1.80738353729248	j	1	0.481068849563599	3	0
3	32	parks36.jpg	parks	2	A	NaN	2.46616983413696	j	0	0.92630672454834	2	0
3	33	fields52.jpg	fields	1	B	213	2.51779127120972	k	0	0.907859325408936	2	0
3	34	deserts22.jpg	deserts	1	X	234	3.15323829650879	k	0	1.059978723526	3	0
3	35	beaches28.jpg	beaches	1	B	231	4.22135853767395	k	0	1.96635127067566	2	0
3	36	canyons34.jpg	canyons	2	X	NaN	3.56815981864929	j	0	1.27016377449036	2	0
3	37	mountains18.jpg	mountains	2	B	NaN	1.82992267608643	k	1	1.30487036705017	3	0
3	38	lakes46.jpg	lakes	1	X	255	3.90040898323059	k	0	0.951016902923584	3	0
3	39	lakes7.jpg	lakes	2	X	NaN	1.83142185211182	k	1	1.0777747631073	3	0
3	40	forests13.jpg	forests	1	A	331	1.74470496177673	j	1	0.592127323150635	3	0
3	41	canyons39.jpg	canyons	2	X	NaN	2.34817385673523	j	0	2.0219132900238	2	0
3	42	deserts21.jpg	deserts	2	X	NaN	1.56466054916382	k	1	1.33066201210022	4	0
3	43	lakes53.jpg	lakes	2	X	NaN	1.85393786430359	k	1	1.05970573425293	3	0
3	44	fields11.jpg	fields	1	B	114	1.54008102416992	j	1	0.565346240997314	4	0
3	45	mountains40.jpg	mountains	2	B	NaN	3.95410823822021	k	1	2.0088107585907	2	0
3	46	bridges7.jpg	bridges	1	A	102	1.29633569717407	j	1	0.752641916275024	4	0
3	47	canyons17.jpg	canyons	1	X	283	1.79698467254639	j	1	0.498265743255615	4	0
3	48	fields34.jpg	fields	1	B	217	1.29166531562805	j	1	0.656994819641113	4	0
3	49	forests16.jpg	forests	1	A	293	2.16556286811829	k	0	1.40237498283386	3	0
3	50	forests6.jpg	forests	1	A	321	3.15997242927551	j	1	0.989511728286743	3	0
3	51	fields30.jpg	fields	2	B	NaN	2.21151971817017	k	1	0.962158679962158	2	0
3	52	mountains50.jpg	mountains	2	B	NaN	2.85965752601624	k	1	0.664294004440308	3	0
3	53	mountains4.jpg	mountains	2	B	NaN	3.99414277076721	k	1	1.02137804031372	2	0
3	54	mountains53.jpg	mountains	1	B	310	2.3450334072113	k	0	0.528520822525024	2	0
3	55	bridges30.jpg	bridges	2	A	NaN	2.17411136627197	j	0	0.659185171127319	3	0
3	56	mountains33.jpg	mountains	1	B	225	1.43579268455505	k	0	1.18590784072876	3	0
3	57	waterfalls54.jpg	waterfalls	2	X	NaN	1.77836585044861	j	0	0.60640549659729	4	0
3	58	canyons40.jpg	canyons	2	X	NaN	2.88177442550659	j	0	0.42919397354126	3	0
3	59	lighthouses12.jpg	lighthouses	1	X	291	3.51468992233276	k	0	1.03272390365601	3	0
3	60	lighthouses34.jpg	lighthouses	1	X	136	1.7659637928009	j	1	0.438966274261475	4	0
3	61	deserts5.jpg	deserts	1	X	198	1.65683579444885	j	1	0.462675333023071	4	0
3	62	canyons19.jpg	canyons	2	X	NaN	1.54390072822571	k	1	1.74524235725403	3	0
3	63	forests50.jpg	forests	2	A	NaN	1.86632990837097	k	1	0.593363761901855	3	0
3	64	lakes16.jpg	lakes	2	X	NaN	2.70239019393921	k	1	2.12108182907104	3	0
3	65	marshes7.jpg	marshes	2	X	NaN	2.31492066383362	k	1	0.921905994415283	2	0
3	66	lakes22.jpg	lakes	2	X	NaN	2.15958690643311	j	0	0.562268257141113	3	0
3	67	beaches36.jpg	beaches	2	B	NaN	1.7487051486969	k	1	1.35639691352844	4	0
3	68	parks49.jpg	parks	2	A	NaN	2.19381070137024	k	1	0.69513988494873	3	0
3	69	deserts27.jpg	deserts	1	X	303	2.04423666000366	k	0	0.860482931137085	3	0
3	70	marshes38.jpg	marshes	1	X	129	2.23488998413086	k	0	0.925283908843994	3	0
3	71	marshes43.jpg	marshes	1	X	282	1.73808884620667	j	1	1.2693178653717	2	0
3	72	forests49.jpg	forests	1	A	230	4.17111802101135	j	1	1.29300165176392	2	0
3	73	bridges18.jpg	bridges	2	A	NaN	1.64918088912964	j	0	0.761795043945312	3	0
3	74	marshes32.jpg	marshes	1	X	156	1.64806628227234	j	1	0.534095764160156	3	0
3	75	forests10.jpg	forests	1	A	259	1.48779964447021	k	0	1.06119132041931	3	0
3	76	mountains26.jpg	mountains	1	B	188	2.19667482376099	k	0	1.1639358997345	3	0
3	77	marshes10.jpg	marshes	1	X	118	2.66459202766418	j	1	1.10072135925293	3	0
3	78	beaches10.jpg	beaches	2	B	NaN	1.80423498153687	j	0	1.34574913978577	2	0
3	79	beaches15.jpg	beaches	1	B	117	2.09978866577148	j	1	1.29960894584656	4	0
3	80	bridges8.jpg	bridges	1	A	84	2.57293367385864	j	1	1.39790487289429	3	0
3	81	canyons18.jpg	canyons	2	X	NaN	1.44329166412354	j	0	1.63165593147278	4	0
3	82	lighthouses27.jpg	lighthouses	1	X	163	2.13482975959778	j	1	0.645053386688232	4	0
3	83	canyons24.jpg	canyons	2	X	NaN	1.95711970329285	k	1	1.64684176445007	3	0
3	84	fields10.jpg	fields	2	B	NaN	2.1158652305603	j	0	0.854844570159912	4	0
3	85	marshes16.jpg	marshes	2	X	NaN	1.45629072189331	k	1	0.681906223297119	2	0
3	86	fields26.jpg	fields	2	B	NaN	4.26604676246643	k	1	1.28801989555359	3	0
3	87	canyons25.jpg	canyons	1	X	205	2.01519203186035	k	0	1.43820381164551	3	0
3	88	lighthouses2.jpg	lighthouses	2	X	NaN	2.04631066322327	j	0	0.599475622177124	3	0
3	89	waterfalls19.jpg	waterfalls	2	X	NaN	1.91390752792358	j	0	0.378628730773926	3	0
3	90	mountains39.jpg	mountains	1	B	210	2.34116864204407	k	0	2.06353116035461	2	0
3	91	bridges14.jpg	bridges	1	A	329	1.84502410888672	j	1	1.39242506027222	3	0
3	92	marshes24.jpg	marshes	2	X	NaN	1.78640937805176	k	1	1.11576175689697	2	0
3	93	marshes23.jpg	marshes	2	X	NaN	1.72851872444153	j	0	0.60865330696106	4	0
3	94	waterfalls20.jpg	waterfalls	1	X	215	1.39092373847961	k	0	1.6732816696167	2	0
3	95	deserts15.jpg	deserts	1	X	261	1.75288486480713	j	1	1.33858585357666	2	0
3	96	canyons7.jpg	canyons	1	X	250	2.05065155029297	k	0	1.35643625259399	3	0
3	97	waterfalls44.jpg	waterfalls	1	X	257	1.3928759098053	k	0	1.08512306213379	3	0
3	98	beaches19.jpg	beaches	2	B	NaN	1.88911890983582	k	1	1.31940317153931	4	0
3	99	marshes27.jpg	marshes	2	X	NaN	2.84726285934448	k	1	1.61355710029602	3	0
3	100	lakes29.jpg	lakes	1	X	328	2.3576602935791	k	0	1.19327068328857	2	0
3	101	waterfalls17.jpg	waterfalls	2	X	NaN	2.65748476982117	j	0	0.845094919204712	2	0
3	102	beaches12.jpg	beaches	2	B	NaN	1.83017063140869	k	1	1.7282407283783	4	0
3	103	marshes44.jpg	marshes	1	X	145	3.18289542198181	k	0	1.56825757026672	3	0
3	104	beaches34.jpg	beaches	2	B	NaN	2.85792803764343	k	1	1.29976415634155	3	0
3	105	fields23.jpg	fields	2	B	NaN	2.65828800201416	j	0	1.02806425094604	3	0
3	106	marshes49.jpg	marshes	2	X	NaN	2.44981384277344	k	1	1.56739497184753	2	0
3	107	parks20.jpg	parks	2	A	NaN	2.64024567604065	k	1	0.465617895126343	4	0
3	108	lakes3.jpg	lakes	1	X	233	3.72337055206299	k	0	1.09525632858276	2	0
3	109	deserts37.jpg	deserts	1	X	258	1.99040913581848	k	0	1.30473256111145	4	0
3	110	canyons28.jpg	canyons	1	X	170	1.93325400352478	j	1	0.414521932601929	2	0
3	111	bridges13.jpg	bridges	1	A	318	4.28209829330444	j	1	1.4656937122345	3	0
3	112	marshes30.jpg	marshes	2	X	NaN	4.00825166702271	k	1	1.47502064704895	3	0
3	113	fields43.jpg	fields	1	B	106	2.14376306533813	k	0	1.0110867023468	3	0
3	114	lighthouses29.jpg	lighthouses	1	X	153	2.07959485054016	j	1	0.668462753295898	3	0
3	115	mountains24.jpg	mountains	2	B	NaN	1.49031019210815	k	1	0.866530418395996	4	0
3	116	lakes45.jpg	lakes	2	X	NaN	2.92725276947021	j	0	0.634248971939087	3	0
3	117	lakes33.jpg	lakes	2	X	NaN	1.62337207794189	j	0	0.581375122070312	3	0
3	118	bridges34.jpg	bridges	2	A	NaN	2.03546690940857	k	1	1.09069156646729	4	0
3	119	marshes18.jpg	marshes	1	X	189	1.77769207954407	j	1	0.506904363632202	4	0
3	120	deserts17.jpg	deserts	2	X	NaN	1.71756863594055	k	1	0.69855809211731	3	0
3	121	forests19.jpg	forests	1	A	265	3.17396831512451	k	0	1.12591767311096	3	0
3	122	fields21.jpg	fields	2	B	NaN	4.03271079063416	k	1	1.14098381996155	2	0
3	123	bridges46.jpg	bridges	2	A	NaN	2.88707590103149	k	1	1.30854868888855	2	0
3	124	forests22.jpg	forests	1	A	178	1.89895033836365	k	0	0.895665884017944	3	0
3	125	mountains25.jpg	mountains	1	B	142	3.57959246635437	k	0	1.08571791648865	3	0
3	126	marshes47.jpg	marshes	1	X	307	3.1976535320282	k	0	0.818359851837158	3	0
3	127	lighthouses5.jpg	lighthouses	1	X	272	4.56524777412415	j	1	0.308212995529175	2	0
3	128	bridges1.jpg	bridges	1	A	89	1.51844811439514	j	1	0.445475101470947	4	0
3	129	forests11.jpg	forests	1	A	305	1.29963779449463	j	1	0.548405647277832	4	0
3	130	forests41.jpg	forests	1	A	94	3.65156435966492	k	0	1.25037169456482	2	0
3	131	deserts39.jpg	deserts	2	X	NaN	2.61681509017944	j	0	0.805642127990723	4	0
3	132	forests37.jpg	forests	1	A	206	2.09599184989929	k	0	1.59952092170715	2	0
3	133	forests4.jpg	forests	2	A	NaN	2.38878655433655	j	0	0.925239562988281	3	0
3	134	canyons2.jpg	canyons	1	X	262	1.89593267440796	k	0	1.42318868637085	3	0
3	135	lighthouses56.jpg	lighthouses	2	X	NaN	3.4628849029541	j	0	0.810638666152954	2	0
3	136	marshes2.jpg	marshes	1	X	251	3.90616083145142	k	0	1.29878330230713	2	0
3	137	mountains28.jpg	mountains	2	B	NaN	1.71206784248352	k	1	0.95800256729126	3	0
3	138	mountains32.jpg	mountains	2	B	NaN	1.46225571632385	k	1	0.97802472114563	3	0
3	139	marshes8.jpg	marshes	1	X	121	2.09957575798035	j	1	0.886293649673462	2	0
3	140	parks17.jpg	parks	2	A	NaN	2.67842721939087	j	0	0.986418008804321	3	0
3	141	bridges4.jpg	bridges	1	A	168	1.89140295982361	k	0	1.01780319213867	4	0
3	142	fields42.jpg	fields	1	B	330	1.68375372886658	j	1	0.567260503768921	4	0
3	143	forests51.jpg	forests	1	A	124	2.965984582901	k	0	0.848872661590576	2	0
3	144	lakes39.jpg	lakes	2	X	NaN	2.27227187156677	j	0	0.489362716674805	4	0
3	145	bridges20.jpg	bridges	2	A	NaN	2.2172863483429	k	1	0.946493864059448	4	0
3	146	lakes8.jpg	lakes	1	X	143	1.98939228057861	k	0	1.61291265487671	3	0
3	147	marshes3.jpg	marshes	1	X	297	1.69548583030701	k	0	0.707850694656372	4	0
3	148	canyons41.jpg	canyons	2	X	NaN	2.87323570251465	j	0	0.682233095169067	2	0
3	149	canyons5.jpg	canyons	2	X	NaN	2.4463677406311	k	1	1.29066467285156	2	0
3	150	bridges33.jpg	bridges	1	A	126	1.56688857078552	j	1	1.2487199306488	4	0
3	151	canyons6.jpg	canyons	2	X	NaN	2.37546491622925	j	0	0.519556760787964	4	0
3	152	lighthouses38.jpg	lighthouses	1	X	228	1.80518078804016	j	1	0.489874124526978	4	0
3	153	forests47.jpg	forests	2	A	NaN	1.37180662155151	k	1	1.43488597869873	2	0
3	154	forests33.jpg	forests	2	A	NaN	1.64021229743958	k	1	0.712693691253662	3	0
3	155	deserts55.jpg	deserts	2	X	NaN	1.88098073005676	k	1	1.39142394065857	4	0
3	156	beaches40.jpg	beaches	1	B	95	1.64155530929565	j	1	0.711743831634521	4	0
3	157	mountains2.jpg	mountains	2	B	NaN	2.26221966743469	k	1	0.556862592697144	2	0
3	158	waterfalls23.jpg	waterfalls	1	X	320	2.2292537689209	k	0	0.952417612075806	3	0
3	159	canyons37.jpg	canyons	1	X	211	1.60665702819824	j	1	0.831376791000366	3	0
3	160	parks4.jpg	parks	2	A	NaN	2.45603394508362	k	1	1.10073566436768	4	0
3	161	deserts54.jpg	deserts	2	X	NaN	2.19610977172852	k	1	0.589554071426392	3	0
3	162	deserts29.jpg	deserts	1	X	296	1.91356611251831	k	0	0.922225713729858	3	0
3	163	lakes41.jpg	lakes	2	X	NaN	3.24490880966187	k	1	1.07920837402344	2	0
3	164	deserts48.jpg	deserts	1	X	146	1.61993527412415	k	0	0.850973844528198	4	0
3	165	forests24.jpg	forests	2	A	NaN	2.87744069099426	k	1	0.966465711593628	3	0
3	166	marshes14.jpg	marshes	1	X	197	2.30318474769592	j	1	0.760967254638672	2	0
3	167	beaches41.jpg	beaches	2	B	NaN	2.28324866294861	k	1	1.2764368057251	3	0
3	168	fields3.jpg	fields	2	B	NaN	2.553297996521	k	1	0.599063634872437	3	0
3	169	lakes2.jpg	lakes	1	X	194	2.17725563049316	j	1	0.964290857315063	3	0
3	170	deserts36.jpg	deserts	1	X	290	1.31077885627747	k	0	1.36335849761963	3	0
3	171	mountains3.jpg	mountains	1	B	101	3.86867809295654	k	0	0.887901306152344	3	0
3	172	marshes15.jpg	marshes	1	X	248	4.68783330917358	k	0	1.84633469581604	2	0
3	173	lighthouses28.jpg	lighthouses	1	X	180	2.89735460281372	j	1	0.644916296005249	3	0
3	174	mountains35.jpg	mountains	2	B	NaN	1.4607458114624	k	1	1.50840163230896	3	0
3	175	parks53.jpg	parks	1	A	224	2.71089458465576	j	1	0.643462657928467	3	0
3	176	bridges3.jpg	bridges	2	A	NaN	2.94890570640564	k	1	0.606549978256226	2	0
3	177	marshes21.jpg	marshes	2	X	NaN	1.69798994064331	j	0	1.41062879562378	3	0
3	178	mountains48.jpg	mountains	2	B	NaN	1.73609280586243	k	1	3.56725287437439	3	0
3	179	bridges44.jpg	bridges	1	A	222	1.71125054359436	k	0	0.873767614364624	3	0
3	180	lakes15.jpg	lakes	1	X	104	3.04041481018066	k	0	0.718000173568726	3	0
3	181	lakes23.jpg	lakes	2	X	NaN	2.98164772987366	k	1	1.11394286155701	3	0
3	182	beaches18.jpg	beaches	1	B	260	2.42370772361755	k	0	0.649661779403687	3	0
3	183	deserts43.jpg	deserts	1	X	148	1.58417177200317	j	1	0.508520364761353	3	0
3	184	canyons23.jpg	canyons	2	X	NaN	1.5669527053833	j	0	1.73075079917908	2	0
3	185	fields32.jpg	fields	1	B	254	1.49292850494385	k	0	0.592229843139648	3	0
3	186	parks40.jpg	parks	2	A	NaN	1.98420190811157	k	1	0.839549541473389	3	0
3	187	forests38.jpg	forests	2	A	NaN	2.01166391372681	k	1	1.02428364753723	4	0
3	188	mountains29.jpg	mountains	1	B	264	1.61308264732361	k	0	0.566701650619507	2	0
3	189	fields13.jpg	fields	2	B	NaN	1.79549860954285	k	1	0.607775449752808	3	0
3	190	waterfalls34.jpg	waterfalls	1	X	333	2.78117179870605	j	1	0.695549964904785	3	0
3	191	forests35.jpg	forests	1	A	116	2.88854479789734	j	1	0.621031999588013	2	0
3	192	lighthouses37.jpg	lighthouses	2	X	NaN	2.00479006767273	k	1	1.32937073707581	2	0
3	193	lighthouses51.jpg	lighthouses	1	X	172	3.33205842971802	k	0	1.8044126033783	2	0
3	194	forests7.jpg	forests	2	A	NaN	1.75776219367981	k	1	0.598478317260742	4	0
3	195	waterfalls46.jpg	waterfalls	1	X	271	1.84230995178223	k	0	0.681546926498413	4	0
3	196	parks12.jpg	parks	1	A	195	1.58322501182556	j	1	0.671684265136719	4	0
3	197	deserts3.jpg	deserts	1	X	327	1.48122453689575	j	1	0.708698749542236	3	0
3	198	lakes11.jpg	lakes	1	X	115	1.607093334198	j	1	0.708691835403442	3	0
3	199	marshes53.jpg	marshes	2	X	NaN	1.99516463279724	k	1	1.19145750999451	3	0
3	200	canyons52.jpg	canyons	1	X	232	2.18377470970154	k	0	1.75614380836487	3	0
3	201	parks42.jpg	parks	1	A	173	2.53697991371155	k	0	0.655329942703247	3	0
3	202	fields2.jpg	fields	1	B	192	3.1157431602478	k	0	0.851723909378052	3	0
3	203	parks14.jpg	parks	1	A	132	3.47997522354126	j	1	0.591156482696533	3	0
3	204	lighthouses36.jpg	lighthouses	1	X	108	1.59416770935059	k	0	0.282470703125	3	0
3	205	bridges56.jpg	bridges	2	A	NaN	2.91681003570557	j	0	0.742681264877319	2	0
3	206	lighthouses22.jpg	lighthouses	2	X	NaN	2.49965906143188	j	0	1.05937385559082	4	0
3	207	marshes5.jpg	marshes	2	X	NaN	1.64168953895569	k	1	0.723152875900269	3	0
3	208	parks23.jpg	parks	1	A	209	3.84974551200867	k	0	1.16149568557739	2	0
3	209	waterfalls26.jpg	waterfalls	1	X	122	2.90284585952759	j	1	0.649595975875854	2	0
3	210	beaches4.jpg	beaches	2	B	NaN	3.01593136787415	j	0	0.834042549133301	2	0
3	211	lighthouses14.jpg	lighthouses	1	X	241	1.74399185180664	k	0	1.10029411315918	3	0
3	212	marshes35.jpg	marshes	2	X	NaN	1.71771287918091	k	1	1.52775073051453	3	0
3	213	bridges42.jpg	bridges	2	A	NaN	2.29249978065491	k	1	0.937773942947388	4	0
3	214	mountains43.jpg	mountains	1	B	300	1.56693005561829	k	0	0.86896800994873	4	0
3	215	deserts28.jpg	deserts	2	X	NaN	2.01854586601257	j	0	0.442543745040894	3	0
3	216	lakes38.jpg	lakes	2	X	NaN	1.66899561882019	j	0	0.451030015945435	4	0
3	217	parks16.jpg	parks	2	A	NaN	1.51038193702698	k	1	0.672069072723389	3	0
3	218	beaches25.jpg	beaches	2	B	NaN	2.37573981285095	j	0	0.532883882522583	4	0
3	219	marshes39.jpg	marshes	1	X	242	1.30082845687866	k	0	1.30258274078369	3	0
3	220	deserts31.jpg	deserts	2	X	NaN	2.70286655426025	k	1	0.517636775970459	3	0
3	221	beaches35.jpg	beaches	2	B	NaN	2.48622989654541	k	1	0.583690643310547	4	0
3	222	fields56.jpg	fields	1	B	326	1.67357754707336	k	0	0.541665315628052	3	0
3	223	deserts10.jpg	deserts	2	X	NaN	1.75207710266113	k	1	0.35371732711792	3	0
3	224	parks24.jpg	parks	1	A	243	1.69711494445801	k	0	0.251574039459229	3	0
3	225	bridges16.jpg	bridges	1	A	325	1.66288018226624	j	1	0.441511631011963	3	0
3	226	deserts9.jpg	deserts	2	X	NaN	1.25257778167725	k	1	0.514188289642334	3	0
3	227	mountains17.jpg	mountains	2	B	NaN	1.76862359046936	k	1	0.89066481590271	2	0
3	228	waterfalls42.jpg	waterfalls	1	X	295	1.72765684127808	k	0	0.682806968688965	3	0
3	229	deserts49.jpg	deserts	1	X	139	2.49681663513184	k	0	1.32901406288147	3	0
3	230	parks31.jpg	parks	2	A	NaN	3.01180505752563	k	1	1.33255434036255	3	0
3	231	parks8.jpg	parks	2	A	NaN	1.38754272460938	k	1	0.396015882492065	3	0
3	232	fields5.jpg	fields	1	B	287	1.97291231155396	k	0	0.252027988433838	3	0
3	233	bridges37.jpg	bridges	2	A	NaN	1.81739568710327	k	1	0.348470211029053	4	0
3	234	fields54.jpg	fields	1	B	204	1.51367807388306	j	1	0.370393991470337	2	0
3	235	marshes42.jpg	marshes	2	X	NaN	2.48007893562317	j	0	0.761061668395996	2	0
3	236	lighthouses52.jpg	lighthouses	2	X	NaN	1.73744606971741	k	1	0.537002325057983	3	0
3	237	marshes37.jpg	marshes	2	X	NaN	1.52193093299866	j	0	0.417873859405518	3	0
3	238	parks44.jpg	parks	1	A	141	2.49666690826416	k	0	1.0809178352356	3	0
3	239	mountains19.jpg	mountains	1	B	281	1.91390538215637	k	0	0.63261604309082	3	0
3	240	fields28.jpg	fields	1	B	127	2.95385932922363	j	1	1.35045170783997	2	0
3	241	fields31.jpg	fields	1	B	85	2.39971828460693	k	0	0.528415679931641	3	0
3	242	deserts40.jpg	deserts	1	X	167	1.82215690612793	j	1	0.503212690353394	3	0
3	243	parks29.jpg	parks	1	A	239	2.30078315734863	k	0	1.10740756988525	3	0
3	244	marshes36.jpg	marshes	1	X	311	2.79882717132568	k	0	0.828299283981323	3	0
3	245	canyons50.jpg	canyons	1	X	226	1.4051308631897	k	0	0.713764905929565	3	0
3	246	forests55.jpg	forests	1	A	111	3.37235975265503	k	0	1.01759576797485	2	0
3	247	deserts53.jpg	deserts	1	X	123	3.14762735366821	k	0	1.10125374794006	2	0
3	248	canyons53.jpg	canyons	2	X	NaN	1.55070757865906	k	1	0.97442102432251	2	0
