"","subject","trial","Timebin","ps.adj","time.adj","img","categ","cond","rep","answer","trialdur","acc","rt","resp","group","block","ITI"
"1",82,1,0,7.51372549019613,0,"bridges19.jpg","bridges","X",0,"yes",0.999705,1,1.47669196128845,"k",0,1,5
"2",82,1,1,6.41372549019613,0.01,"bridges19.jpg","bridges","X",0,"yes",0.999705,1,1.47669196128845,"k",0,1,5
"3",82,1,2,0.313725490196134,0.02,"bridges19.jpg","bridges","X",0,"yes",0.999705,1,1.47669196128845,"k",0,1,5
"4",82,1,3,-22.8862745098039,0.03,"bridges19.jpg","bridges","X",0,"yes",0.999705,1,1.47669196128845,"k",0,1,5
"5",82,1,4,7.81372549019613,0.04,"bridges19.jpg","bridges","X",0,"yes",0.999705,1,1.47669196128845,"k",0,1,5
"6",82,1,5,17.7137254901961,0.05,"bridges19.jpg","bridges","X",0,"yes",0.999705,1,1.47669196128845,"k",0,1,5
"7",82,1,6,0.513725490196134,0.06,"bridges19.jpg","bridges","X",0,"yes",0.999705,1,1.47669196128845,"k",0,1,5
"8",82,1,7,1.61372549019613,0.07,"bridges19.jpg","bridges","X",0,"yes",0.999705,1,1.47669196128845,"k",0,1,5
"9",82,1,8,-1.98627450980387,0.08,"bridges19.jpg","bridges","X",0,"yes",0.999705,1,1.47669196128845,"k",0,1,5
"10",82,1,9,4.91372549019613,0.09,"bridges19.jpg","bridges","X",0,"yes",0.999705,1,1.47669196128845,"k",0,1,5
"11",82,1,10,18.4137254901961,0.1,"bridges19.jpg","bridges","X",0,"yes",0.999705,1,1.47669196128845,"k",0,1,5
"12",82,1,11,9.91372549019613,0.11,"bridges19.jpg","bridges","X",0,"yes",0.999705,1,1.47669196128845,"k",0,1,5
"13",82,1,12,7.31372549019613,0.12,"bridges19.jpg","bridges","X",0,"yes",0.999705,1,1.47669196128845,"k",0,1,5
"14",82,1,13,15.6137254901961,0.13,"bridges19.jpg","bridges","X",0,"yes",0.999705,1,1.47669196128845,"k",0,1,5
"15",82,1,14,2.71372549019613,0.14,"bridges19.jpg","bridges","X",0,"yes",0.999705,1,1.47669196128845,"k",0,1,5
"16",82,1,15,-8.98627450980387,0.15,"bridges19.jpg","bridges","X",0,"yes",0.999705,1,1.47669196128845,"k",0,1,5
"17",82,1,16,0.813725490196134,0.16,"bridges19.jpg","bridges","X",0,"yes",0.999705,1,1.47669196128845,"k",0,1,5
"18",82,1,17,-1.48627450980387,0.17,"bridges19.jpg","bridges","X",0,"yes",0.999705,1,1.47669196128845,"k",0,1,5
"19",82,1,18,-3.48627450980387,0.18,"bridges19.jpg","bridges","X",0,"yes",0.999705,1,1.47669196128845,"k",0,1,5
"20",82,1,19,-6.48627450980387,0.19,"bridges19.jpg","bridges","X",0,"yes",0.999705,1,1.47669196128845,"k",0,1,5
"21",82,1,20,-12.5862745098039,0.2,"bridges19.jpg","bridges","X",0,"yes",0.999705,1,1.47669196128845,"k",0,1,5
"22",82,1,21,-15.2862745098039,0.21,"bridges19.jpg","bridges","X",0,"yes",0.999705,1,1.47669196128845,"k",0,1,5
"23",82,1,22,-13.0862745098039,0.22,"bridges19.jpg","bridges","X",0,"yes",0.999705,1,1.47669196128845,"k",0,1,5
"24",82,1,23,-25.2862745098039,0.23,"bridges19.jpg","bridges","X",0,"yes",0.999705,1,1.47669196128845,"k",0,1,5
"25",82,1,24,-20.9862745098039,0.24,"bridges19.jpg","bridges","X",0,"yes",0.999705,1,1.47669196128845,"k",0,1,5
"26",82,1,25,-31.2862745098039,0.25,"bridges19.jpg","bridges","X",0,"yes",0.999705,1,1.47669196128845,"k",0,1,5
"27",82,1,26,-25.0862745098039,0.26,"bridges19.jpg","bridges","X",0,"yes",0.999705,1,1.47669196128845,"k",0,1,5
"28",82,1,27,-40.8862745098039,0.27,"bridges19.jpg","bridges","X",0,"yes",0.999705,1,1.47669196128845,"k",0,1,5
"29",82,1,28,-41.6862745098039,0.28,"bridges19.jpg","bridges","X",0,"yes",0.999705,1,1.47669196128845,"k",0,1,5
"30",82,1,29,-45.9084967320261,0.29,"bridges19.jpg","bridges","X",0,"yes",0.999705,1,1.47669196128845,"k",0,1,5
"31",82,1,30,-25.8862745098039,0.3,"bridges19.jpg","bridges","X",0,"yes",0.999705,1,1.47669196128845,"k",0,1,5
"32",82,1,31,-41.6862745098039,0.31,"bridges19.jpg","bridges","X",0,"yes",0.999705,1,1.47669196128845,"k",0,1,5
"33",82,1,32,-28.5862745098039,0.32,"bridges19.jpg","bridges","X",0,"yes",0.999705,1,1.47669196128845,"k",0,1,5
"34",82,1,33,-31.7862745098039,0.33,"bridges19.jpg","bridges","X",0,"yes",0.999705,1,1.47669196128845,"k",0,1,5
"35",82,1,34,-30.9862745098039,0.34,"bridges19.jpg","bridges","X",0,"yes",0.999705,1,1.47669196128845,"k",0,1,5
"36",82,1,35,-40.7862745098039,0.35,"bridges19.jpg","bridges","X",0,"yes",0.999705,1,1.47669196128845,"k",0,1,5
"37",82,1,36,-37.7862745098039,0.36,"bridges19.jpg","bridges","X",0,"yes",0.999705,1,1.47669196128845,"k",0,1,5
"38",82,1,37,-62.8862745098039,0.37,"bridges19.jpg","bridges","X",0,"yes",0.999705,1,1.47669196128845,"k",0,1,5
"39",82,1,38,-68.9862745098039,0.38,"bridges19.jpg","bridges","X",0,"yes",0.999705,1,1.47669196128845,"k",0,1,5
"40",82,1,39,-83.3862745098039,0.39,"bridges19.jpg","bridges","X",0,"yes",0.999705,1,1.47669196128845,"k",0,1,5
"41",82,1,40,-65.2862745098039,0.4,"bridges19.jpg","bridges","X",0,"yes",0.999705,1,1.47669196128845,"k",0,1,5
"42",82,1,41,-80.7862745098039,0.41,"bridges19.jpg","bridges","X",0,"yes",0.999705,1,1.47669196128845,"k",0,1,5
"43",82,1,42,-90.2862745098039,0.42,"bridges19.jpg","bridges","X",0,"yes",0.999705,1,1.47669196128845,"k",0,1,5
"44",82,1,43,-99.3862745098039,0.43,"bridges19.jpg","bridges","X",0,"yes",0.999705,1,1.47669196128845,"k",0,1,5
"45",82,1,44,-91.0862745098039,0.44,"bridges19.jpg","bridges","X",0,"yes",0.999705,1,1.47669196128845,"k",0,1,5
"46",82,1,45,-106.686274509804,0.45,"bridges19.jpg","bridges","X",0,"yes",0.999705,1,1.47669196128845,"k",0,1,5
"47",82,1,46,-108.504456327986,0.46,"bridges19.jpg","bridges","X",0,"yes",0.999705,1,1.47669196128845,"k",0,1,5
"48",82,1,47,-133.575163398693,0.47,"bridges19.jpg","bridges","X",0,"yes",0.999705,1,1.47669196128845,"k",0,1,5
"49",82,1,48,-123.786274509804,0.48,"bridges19.jpg","bridges","X",0,"yes",0.999705,1,1.47669196128845,"k",0,1,5
"50",82,1,49,-128.986274509804,0.49,"bridges19.jpg","bridges","X",0,"yes",0.999705,1,1.47669196128845,"k",0,1,5
"51",82,1,50,-130.986274509804,0.5,"bridges19.jpg","bridges","X",0,"yes",0.999705,1,1.47669196128845,"k",0,1,5
"52",82,1,51,-150.886274509804,0.51,"bridges19.jpg","bridges","X",0,"yes",0.999705,1,1.47669196128845,"k",0,1,5
"53",82,1,52,-164.186274509804,0.52,"bridges19.jpg","bridges","X",0,"yes",0.999705,1,1.47669196128845,"k",0,1,5
"54",82,1,53,-149.686274509804,0.53,"bridges19.jpg","bridges","X",0,"yes",0.999705,1,1.47669196128845,"k",0,1,5
"55",82,1,54,-148.986274509804,0.54,"bridges19.jpg","bridges","X",0,"yes",0.999705,1,1.47669196128845,"k",0,1,5
"56",82,1,55,-155.586274509804,0.55,"bridges19.jpg","bridges","X",0,"yes",0.999705,1,1.47669196128845,"k",0,1,5
"57",82,1,56,-147.231729055258,0.56,"bridges19.jpg","bridges","X",0,"yes",0.999705,1,1.47669196128845,"k",0,1,5
"58",82,1,57,-173.086274509804,0.57,"bridges19.jpg","bridges","X",0,"yes",0.999705,1,1.47669196128845,"k",0,1,5
"59",82,1,58,-175.186274509804,0.58,"bridges19.jpg","bridges","X",0,"yes",0.999705,1,1.47669196128845,"k",0,1,5
"60",82,1,59,-181.241830065359,0.59,"bridges19.jpg","bridges","X",0,"yes",0.999705,1,1.47669196128845,"k",0,1,5
"61",82,1,60,-161.186274509804,0.6,"bridges19.jpg","bridges","X",0,"yes",0.999705,1,1.47669196128845,"k",0,1,5
"62",82,1,61,-176.486274509804,0.61,"bridges19.jpg","bridges","X",0,"yes",0.999705,1,1.47669196128845,"k",0,1,5
"63",82,1,62,-151.586274509804,0.62,"bridges19.jpg","bridges","X",0,"yes",0.999705,1,1.47669196128845,"k",0,1,5
"64",82,1,63,-176.386274509804,0.63,"bridges19.jpg","bridges","X",0,"yes",0.999705,1,1.47669196128845,"k",0,1,5
"65",82,1,64,-177.386274509804,0.64,"bridges19.jpg","bridges","X",0,"yes",0.999705,1,1.47669196128845,"k",0,1,5
"66",82,1,65,-183.586274509804,0.65,"bridges19.jpg","bridges","X",0,"yes",0.999705,1,1.47669196128845,"k",0,1,5
"67",82,1,66,-192.686274509804,0.66,"bridges19.jpg","bridges","X",0,"yes",0.999705,1,1.47669196128845,"k",0,1,5
"68",82,1,67,-185.586274509804,0.67,"bridges19.jpg","bridges","X",0,"yes",0.999705,1,1.47669196128845,"k",0,1,5
"69",82,1,68,-176.686274509804,0.68,"bridges19.jpg","bridges","X",0,"yes",0.999705,1,1.47669196128845,"k",0,1,5
"70",82,1,69,-200.386274509804,0.69,"bridges19.jpg","bridges","X",0,"yes",0.999705,1,1.47669196128845,"k",0,1,5
"71",82,1,70,-187.486274509804,0.7,"bridges19.jpg","bridges","X",0,"yes",0.999705,1,1.47669196128845,"k",0,1,5
"72",82,1,71,-185.186274509804,0.71,"bridges19.jpg","bridges","X",0,"yes",0.999705,1,1.47669196128845,"k",0,1,5
"73",82,1,72,-176.286274509804,0.72,"bridges19.jpg","bridges","X",0,"yes",0.999705,1,1.47669196128845,"k",0,1,5
"74",82,1,73,-204.686274509804,0.73,"bridges19.jpg","bridges","X",0,"yes",0.999705,1,1.47669196128845,"k",0,1,5
"75",82,1,74,-194.286274509804,0.74,"bridges19.jpg","bridges","X",0,"yes",0.999705,1,1.47669196128845,"k",0,1,5
"76",82,1,75,-181.486274509804,0.75,"bridges19.jpg","bridges","X",0,"yes",0.999705,1,1.47669196128845,"k",0,1,5
"77",82,1,76,-184.886274509804,0.76,"bridges19.jpg","bridges","X",0,"yes",0.999705,1,1.47669196128845,"k",0,1,5
"78",82,1,77,-183.586274509804,0.77,"bridges19.jpg","bridges","X",0,"yes",0.999705,1,1.47669196128845,"k",0,1,5
"79",82,1,78,-176.386274509804,0.78,"bridges19.jpg","bridges","X",0,"yes",0.999705,1,1.47669196128845,"k",0,1,5
"80",82,1,79,-173.486274509804,0.79,"bridges19.jpg","bridges","X",0,"yes",0.999705,1,1.47669196128845,"k",0,1,5
"81",82,1,80,-172.286274509804,0.8,"bridges19.jpg","bridges","X",0,"yes",0.999705,1,1.47669196128845,"k",0,1,5
"82",82,1,81,-173.586274509804,0.81,"bridges19.jpg","bridges","X",0,"yes",0.999705,1,1.47669196128845,"k",0,1,5
"83",82,1,82,-174.911434035784,0.82,"bridges19.jpg","bridges","X",0,"yes",0.999705,1,1.47669196128845,"k",0,1,5
"84",82,1,83,-171.684451355747,0.83,"bridges19.jpg","bridges","X",0,"yes",0.999705,1,1.47669196128845,"k",0,1,5
"85",82,1,84,-168.457468675711,0.84,"bridges19.jpg","bridges","X",0,"yes",0.999705,1,1.47669196128845,"k",0,1,5
"86",82,1,85,-165.230485995674,0.85,"bridges19.jpg","bridges","X",0,"yes",0.999705,1,1.47669196128845,"k",0,1,5
"87",82,1,86,-162.003503315638,0.86,"bridges19.jpg","bridges","X",0,"yes",0.999705,1,1.47669196128845,"k",0,1,5
"88",82,1,87,-158.776520635602,0.87,"bridges19.jpg","bridges","X",0,"yes",0.999705,1,1.47669196128845,"k",0,1,5
"89",82,1,88,-155.549537955565,0.88,"bridges19.jpg","bridges","X",0,"yes",0.999705,1,1.47669196128845,"k",0,1,5
"90",82,1,89,-152.322555275529,0.89,"bridges19.jpg","bridges","X",0,"yes",0.999705,1,1.47669196128845,"k",0,1,5
"91",82,1,90,-149.095572595492,0.9,"bridges19.jpg","bridges","X",0,"yes",0.999705,1,1.47669196128845,"k",0,1,5
"92",82,1,91,-145.868589915456,0.91,"bridges19.jpg","bridges","X",0,"yes",0.999705,1,1.47669196128845,"k",0,1,5
"93",82,1,92,-142.641607235419,0.92,"bridges19.jpg","bridges","X",0,"yes",0.999705,1,1.47669196128845,"k",0,1,5
"94",82,1,93,-139.253275421381,0.93,"bridges19.jpg","bridges","X",0,"yes",0.999705,1,1.47669196128845,"k",0,1,5
"95",82,1,94,-136.026292741344,0.94,"bridges19.jpg","bridges","X",0,"yes",0.999705,1,1.47669196128845,"k",0,1,5
"96",82,1,95,-132.96065919531,0.95,"bridges19.jpg","bridges","X",0,"yes",0.999705,1,1.47669196128845,"k",0,1,5
"97",82,1,96,-129.733676515273,0.96,"bridges19.jpg","bridges","X",0,"yes",0.999705,1,1.47669196128845,"k",0,1,5
"98",82,1,97,-126.506693835237,0.97,"bridges19.jpg","bridges","X",0,"yes",0.999705,1,1.47669196128845,"k",0,1,5
"99",82,1,98,-123.2797111552,0.98,"bridges19.jpg","bridges","X",0,"yes",0.999705,1,1.47669196128845,"k",0,1,5
"100",82,1,99,-120.052728475164,0.99,"bridges19.jpg","bridges","X",0,"yes",0.999705,1,1.47669196128845,"k",0,1,5
"101",82,1,100,-116.825745795127,1,"bridges19.jpg","bridges","X",0,"yes",0.999705,1,1.47669196128845,"k",0,1,5
"102",82,1,101,-113.598763115091,1.01,"bridges19.jpg","bridges","X",0,"yes",0.999705,1,1.47669196128845,"k",0,1,5
"103",82,1,102,-110.371780435055,1.02,"bridges19.jpg","bridges","X",0,"yes",0.999705,1,1.47669196128845,"k",0,1,5
"104",82,1,103,-107.144797755018,1.03,"bridges19.jpg","bridges","X",0,"yes",0.999705,1,1.47669196128845,"k",0,1,5
"105",82,1,104,-103.917815074982,1.04,"bridges19.jpg","bridges","X",0,"yes",0.999705,1,1.47669196128845,"k",0,1,5
"106",82,1,105,-100.690832394945,1.05,"bridges19.jpg","bridges","X",0,"yes",0.999705,1,1.47669196128845,"k",0,1,5
"107",82,1,106,-97.4638497149087,1.06,"bridges19.jpg","bridges","X",0,"yes",0.999705,1,1.47669196128845,"k",0,1,5
"108",82,1,107,-94.2368670348722,1.07,"bridges19.jpg","bridges","X",0,"yes",0.999705,1,1.47669196128845,"k",0,1,5
"109",82,1,108,-91.0098843548358,1.08,"bridges19.jpg","bridges","X",0,"yes",0.999705,1,1.47669196128845,"k",0,1,5
"110",82,1,109,-87.7829016747993,1.09,"bridges19.jpg","bridges","X",0,"yes",0.999705,1,1.47669196128845,"k",0,1,5
"111",82,1,110,-84.5559189947629,1.1,"bridges19.jpg","bridges","X",0,"yes",0.999705,1,1.47669196128845,"k",0,1,5
"112",82,1,111,-81.3289363147264,1.11,"bridges19.jpg","bridges","X",0,"yes",0.999705,1,1.47669196128845,"k",0,1,5
"113",82,1,112,-77.9406045006881,1.12,"bridges19.jpg","bridges","X",0,"yes",0.999705,1,1.47669196128845,"k",0,1,5
"114",82,1,113,-74.5522726866498,1.13,"bridges19.jpg","bridges","X",0,"yes",0.999705,1,1.47669196128845,"k",0,1,5
"115",82,1,114,-71.3252900066133,1.14,"bridges19.jpg","bridges","X",0,"yes",0.999705,1,1.47669196128845,"k",0,1,5
"116",82,1,115,-68.0983073265769,1.15,"bridges19.jpg","bridges","X",0,"yes",0.999705,1,1.47669196128845,"k",0,1,5
"117",82,1,116,-64.8713246465404,1.16,"bridges19.jpg","bridges","X",0,"yes",0.999705,1,1.47669196128845,"k",0,1,5
"118",82,1,117,-61.644341966504,1.17,"bridges19.jpg","bridges","X",0,"yes",0.999705,1,1.47669196128845,"k",0,1,5
"119",82,1,118,-58.4173592864675,1.18,"bridges19.jpg","bridges","X",0,"yes",0.999705,1,1.47669196128845,"k",0,1,5
"120",82,1,119,-55.3517257404328,1.19,"bridges19.jpg","bridges","X",0,"yes",0.999705,1,1.47669196128845,"k",0,1,5
"121",82,1,120,-52.2860921943982,1.2,"bridges19.jpg","bridges","X",0,"yes",0.999705,1,1.47669196128845,"k",0,1,5
"122",82,1,121,-49.0591095143618,1.21,"bridges19.jpg","bridges","X",0,"yes",0.999705,1,1.47669196128845,"k",0,1,5
"123",82,1,122,-45.8321268343253,1.22,"bridges19.jpg","bridges","X",0,"yes",0.999705,1,1.47669196128845,"k",0,1,5
"124",82,1,123,-42.6051441542888,1.23,"bridges19.jpg","bridges","X",0,"yes",0.999705,1,1.47669196128845,"k",0,1,5
"125",82,1,124,-39.3781614742524,1.24,"bridges19.jpg","bridges","X",0,"yes",0.999705,1,1.47669196128845,"k",0,1,5
"126",82,1,125,-36.1511787942159,1.25,"bridges19.jpg","bridges","X",0,"yes",0.999705,1,1.47669196128845,"k",0,1,5
"127",82,1,126,-32.9241961141794,1.26,"bridges19.jpg","bridges","X",0,"yes",0.999705,1,1.47669196128845,"k",0,1,5
"128",82,1,127,-29.697213434143,1.27,"bridges19.jpg","bridges","X",0,"yes",0.999705,1,1.47669196128845,"k",0,1,5
"129",82,1,128,-26.4702307541065,1.28,"bridges19.jpg","bridges","X",0,"yes",0.999705,1,1.47669196128845,"k",0,1,5
"130",82,1,129,-23.24324807407,1.29,"bridges19.jpg","bridges","X",0,"yes",0.999705,1,1.47669196128845,"k",0,1,5
"131",82,1,130,-20.0162653940336,1.3,"bridges19.jpg","bridges","X",0,"yes",0.999705,1,1.47669196128845,"k",0,1,5
"132",82,1,131,-16.7892827139971,1.31,"bridges19.jpg","bridges","X",0,"yes",0.999705,1,1.47669196128845,"k",0,1,5
"133",82,1,132,-13.5623000339606,1.32,"bridges19.jpg","bridges","X",0,"yes",0.999705,1,1.47669196128845,"k",0,1,5
"134",82,1,133,-10.3353173539242,1.33,"bridges19.jpg","bridges","X",0,"yes",0.999705,1,1.47669196128845,"k",0,1,5
"135",82,1,134,-7.10833467388773,1.34,"bridges19.jpg","bridges","X",0,"yes",0.999705,1,1.47669196128845,"k",0,1,5
"136",82,1,135,-3.88135199385127,1.35,"bridges19.jpg","bridges","X",0,"yes",0.999705,1,1.47669196128845,"k",0,1,5
"137",82,1,136,-0.654369313814811,1.36,"bridges19.jpg","bridges","X",0,"yes",0.999705,1,1.47669196128845,"k",0,1,5
"138",82,1,137,2.57261336622167,1.37,"bridges19.jpg","bridges","X",0,"yes",0.999705,1,1.47669196128845,"k",0,1,5
"139",82,1,138,5.79959604625815,1.38,"bridges19.jpg","bridges","X",0,"yes",0.999705,1,1.47669196128845,"k",0,1,5
"140",82,1,139,9.02657872629459,1.39,"bridges19.jpg","bridges","X",0,"yes",0.999705,1,1.47669196128845,"k",0,1,5
"141",82,1,140,12.253561406331,1.4,"bridges19.jpg","bridges","X",0,"yes",0.999705,1,1.47669196128845,"k",0,1,5
"142",82,1,141,15.4805440863675,1.41,"bridges19.jpg","bridges","X",0,"yes",0.999705,1,1.47669196128845,"k",0,1,5
"143",82,1,142,18.707526766404,1.42,"bridges19.jpg","bridges","X",0,"yes",0.999705,1,1.47669196128845,"k",0,1,5
"144",82,1,143,21.9345094464405,1.43,"bridges19.jpg","bridges","X",0,"yes",0.999705,1,1.47669196128845,"k",0,1,5
"145",82,1,144,25.1614921264769,1.44,"bridges19.jpg","bridges","X",0,"yes",0.999705,1,1.47669196128845,"k",0,1,5
"146",82,1,145,28.3884748065134,1.45,"bridges19.jpg","bridges","X",0,"yes",0.999705,1,1.47669196128845,"k",0,1,5
"147",82,1,146,31.6154574865498,1.46,"bridges19.jpg","bridges","X",0,"yes",0.999705,1,1.47669196128845,"k",0,1,5
"148",82,1,147,34.8424401665863,1.47,"bridges19.jpg","bridges","X",0,"yes",0.999705,1,1.47669196128845,"k",0,1,5
"149",82,1,148,38.0694228466227,1.48,"bridges19.jpg","bridges","X",0,"yes",0.999705,1,1.47669196128845,"k",0,1,5
"150",82,1,149,41.2964055266592,1.49,"bridges19.jpg","bridges","X",0,"yes",0.999705,1,1.47669196128845,"k",0,1,5
"151",82,1,150,44.5233882066957,1.5,"bridges19.jpg","bridges","X",0,"yes",0.999705,1,1.47669196128845,"k",0,1,5
"152",82,1,151,47.7503708867321,1.51,"bridges19.jpg","bridges","X",0,"yes",0.999705,1,1.47669196128845,"k",0,1,5
"153",82,1,152,50.9773535667686,1.52,"bridges19.jpg","bridges","X",0,"yes",0.999705,1,1.47669196128845,"k",0,1,5
"154",82,1,153,54.204336246805,1.53,"bridges19.jpg","bridges","X",0,"yes",0.999705,1,1.47669196128845,"k",0,1,5
"155",82,1,154,57.4313189268415,1.54,"bridges19.jpg","bridges","X",0,"yes",0.999705,1,1.47669196128845,"k",0,1,5
"156",82,1,155,60.658301606878,1.55,"bridges19.jpg","bridges","X",0,"yes",0.999705,1,1.47669196128845,"k",0,1,5
"157",82,1,156,63.8852842869145,1.56,"bridges19.jpg","bridges","X",0,"yes",0.999705,1,1.47669196128845,"k",0,1,5
"158",82,1,157,67.1122669669509,1.57,"bridges19.jpg","bridges","X",0,"yes",0.999705,1,1.47669196128845,"k",0,1,5
"159",82,1,158,70.3392496469874,1.58,"bridges19.jpg","bridges","X",0,"yes",0.999705,1,1.47669196128845,"k",0,1,5
"160",82,1,159,73.5662323270238,1.59,"bridges19.jpg","bridges","X",0,"yes",0.999705,1,1.47669196128845,"k",0,1,5
"161",82,1,160,76.7932150070603,1.6,"bridges19.jpg","bridges","X",0,"yes",0.999705,1,1.47669196128845,"k",0,1,5
"162",82,1,161,80.0201976870968,1.61,"bridges19.jpg","bridges","X",0,"yes",0.999705,1,1.47669196128845,"k",0,1,5
"163",82,1,162,83.2471803671332,1.62,"bridges19.jpg","bridges","X",0,"yes",0.999705,1,1.47669196128845,"k",0,1,5
"164",82,1,163,86.4741630471697,1.63,"bridges19.jpg","bridges","X",0,"yes",0.999705,1,1.47669196128845,"k",0,1,5
"165",82,1,164,89.7011457272062,1.64,"bridges19.jpg","bridges","X",0,"yes",0.999705,1,1.47669196128845,"k",0,1,5
"166",82,1,165,92.9281284072426,1.65,"bridges19.jpg","bridges","X",0,"yes",0.999705,1,1.47669196128845,"k",0,1,5
"167",82,1,166,96.1551110872791,1.66,"bridges19.jpg","bridges","X",0,"yes",0.999705,1,1.47669196128845,"k",0,1,5
"168",82,1,167,99.3820937673156,1.67,"bridges19.jpg","bridges","X",0,"yes",0.999705,1,1.47669196128845,"k",0,1,5
"169",82,1,168,102.609076447352,1.68,"bridges19.jpg","bridges","X",0,"yes",0.999705,1,1.47669196128845,"k",0,1,5
"170",82,1,169,105.836059127388,1.69,"bridges19.jpg","bridges","X",0,"yes",0.999705,1,1.47669196128845,"k",0,1,5
"171",82,1,170,109.063041807425,1.7,"bridges19.jpg","bridges","X",0,"yes",0.999705,1,1.47669196128845,"k",0,1,5
"172",82,1,171,112.290024487461,1.71,"bridges19.jpg","bridges","X",0,"yes",0.999705,1,1.47669196128845,"k",0,1,5
"173",82,1,172,115.517007167498,1.72,"bridges19.jpg","bridges","X",0,"yes",0.999705,1,1.47669196128845,"k",0,1,5
"174",82,1,173,118.743989847534,1.73,"bridges19.jpg","bridges","X",0,"yes",0.999705,1,1.47669196128845,"k",0,1,5
"175",82,1,174,121.970972527571,1.74,"bridges19.jpg","bridges","X",0,"yes",0.999705,1,1.47669196128845,"k",0,1,5
"176",82,1,175,125.197955207607,1.75,"bridges19.jpg","bridges","X",0,"yes",0.999705,1,1.47669196128845,"k",0,1,5
"177",82,1,176,128.424937887644,1.76,"bridges19.jpg","bridges","X",0,"yes",0.999705,1,1.47669196128845,"k",0,1,5
"178",82,1,177,131.65192056768,1.77,"bridges19.jpg","bridges","X",0,"yes",0.999705,1,1.47669196128845,"k",0,1,5
"179",82,1,178,134.878903247717,1.78,"bridges19.jpg","bridges","X",0,"yes",0.999705,1,1.47669196128845,"k",0,1,5
"180",82,1,179,138.105885927753,1.79,"bridges19.jpg","bridges","X",0,"yes",0.999705,1,1.47669196128845,"k",0,1,5
"181",82,1,180,141.33286860779,1.8,"bridges19.jpg","bridges","X",0,"yes",0.999705,1,1.47669196128845,"k",0,1,5
"182",82,1,181,144.559851287826,1.81,"bridges19.jpg","bridges","X",0,"yes",0.999705,1,1.47669196128845,"k",0,1,5
"183",82,1,182,147.786833967862,1.82,"bridges19.jpg","bridges","X",0,"yes",0.999705,1,1.47669196128845,"k",0,1,5
"184",82,1,183,151.013816647899,1.83,"bridges19.jpg","bridges","X",0,"yes",0.999705,1,1.47669196128845,"k",0,1,5
"185",82,1,184,154.240799327935,1.84,"bridges19.jpg","bridges","X",0,"yes",0.999705,1,1.47669196128845,"k",0,1,5
"186",82,1,185,157.467782007972,1.85,"bridges19.jpg","bridges","X",0,"yes",0.999705,1,1.47669196128845,"k",0,1,5
"187",82,1,186,160.694764688008,1.86,"bridges19.jpg","bridges","X",0,"yes",0.999705,1,1.47669196128845,"k",0,1,5
"188",82,1,187,164.083096502047,1.87,"bridges19.jpg","bridges","X",0,"yes",0.999705,1,1.47669196128845,"k",0,1,5
"189",82,1,188,167.310079182083,1.88,"bridges19.jpg","bridges","X",0,"yes",0.999705,1,1.47669196128845,"k",0,1,5
"190",82,1,189,170.375712728118,1.89,"bridges19.jpg","bridges","X",0,"yes",0.999705,1,1.47669196128845,"k",0,1,5
"191",82,1,190,173.602695408154,1.9,"bridges19.jpg","bridges","X",0,"yes",0.999705,1,1.47669196128845,"k",0,1,5
"192",82,1,191,174.736059127389,1.91,"bridges19.jpg","bridges","X",0,"yes",0.999705,1,1.47669196128845,"k",0,1,5
"193",82,1,192,121.713725490196,1.92,"bridges19.jpg","bridges","X",0,"yes",0.999705,1,1.47669196128845,"k",0,1,5
"194",82,1,193,125.013725490196,1.93,"bridges19.jpg","bridges","X",0,"yes",0.999705,1,1.47669196128845,"k",0,1,5
"195",82,1,194,125.113725490196,1.94,"bridges19.jpg","bridges","X",0,"yes",0.999705,1,1.47669196128845,"k",0,1,5
"196",82,1,195,119.213725490196,1.95,"bridges19.jpg","bridges","X",0,"yes",0.999705,1,1.47669196128845,"k",0,1,5
"197",82,1,196,116.913725490196,1.96,"bridges19.jpg","bridges","X",0,"yes",0.999705,1,1.47669196128845,"k",0,1,5
"198",82,1,197,124.813725490196,1.97,"bridges19.jpg","bridges","X",0,"yes",0.999705,1,1.47669196128845,"k",0,1,5
"199",82,1,198,142.013725490196,1.98,"bridges19.jpg","bridges","X",0,"yes",0.999705,1,1.47669196128845,"k",0,1,5
"200",82,1,199,161.513725490196,1.99,"bridges19.jpg","bridges","X",0,"yes",0.999705,1,1.47669196128845,"k",0,1,5
"201",82,1,200,156.313725490196,2,"bridges19.jpg","bridges","X",0,"yes",0.999705,1,1.47669196128845,"k",0,1,5
"202",82,1,201,168.980392156863,2.01,"bridges19.jpg","bridges","X",0,"yes",0.999705,1,1.47669196128845,"k",0,1,5
"203",82,1,202,160.495543672014,2.02,"bridges19.jpg","bridges","X",0,"yes",0.999705,1,1.47669196128845,"k",0,1,5
"204",82,1,203,173.758169934641,2.03,"bridges19.jpg","bridges","X",0,"yes",0.999705,1,1.47669196128845,"k",0,1,5
"205",82,1,204,175.313725490196,2.04,"bridges19.jpg","bridges","X",0,"yes",0.999705,1,1.47669196128845,"k",0,1,5
"206",82,1,205,166.758169934641,2.05,"bridges19.jpg","bridges","X",0,"yes",0.999705,1,1.47669196128845,"k",0,1,5
"207",82,1,206,176.859180035651,2.06,"bridges19.jpg","bridges","X",0,"yes",0.999705,1,1.47669196128845,"k",0,1,5
"208",82,1,207,170.313725490196,2.07,"bridges19.jpg","bridges","X",0,"yes",0.999705,1,1.47669196128845,"k",0,1,5
"209",82,1,208,178.313725490196,2.08,"bridges19.jpg","bridges","X",0,"yes",0.999705,1,1.47669196128845,"k",0,1,5
"210",82,1,209,180.202614379085,2.09,"bridges19.jpg","bridges","X",0,"yes",0.999705,1,1.47669196128845,"k",0,1,5
"211",82,1,210,207.95008912656,2.1,"bridges19.jpg","bridges","X",0,"yes",0.999705,1,1.47669196128845,"k",0,1,5
"212",82,1,211,208.424836601307,2.11,"bridges19.jpg","bridges","X",0,"yes",0.999705,1,1.47669196128845,"k",0,1,5
"213",82,1,212,212.131907308378,2.12,"bridges19.jpg","bridges","X",0,"yes",0.999705,1,1.47669196128845,"k",0,1,5
"214",82,1,213,218.535947712418,2.13,"bridges19.jpg","bridges","X",0,"yes",0.999705,1,1.47669196128845,"k",0,1,5
"215",82,1,214,230.913725490196,2.14,"bridges19.jpg","bridges","X",0,"yes",0.999705,1,1.47669196128845,"k",0,1,5
"216",82,1,215,235.513725490196,2.15,"bridges19.jpg","bridges","X",0,"yes",0.999705,1,1.47669196128845,"k",0,1,5
"217",82,1,216,236.713725490196,2.16,"bridges19.jpg","bridges","X",0,"yes",0.999705,1,1.47669196128845,"k",0,1,5
"218",82,1,217,245.713725490196,2.17,"bridges19.jpg","bridges","X",0,"yes",0.999705,1,1.47669196128845,"k",0,1,5
"219",82,1,218,259.113725490196,2.18,"bridges19.jpg","bridges","X",0,"yes",0.999705,1,1.47669196128845,"k",0,1,5
"220",82,1,219,272.013725490196,2.19,"bridges19.jpg","bridges","X",0,"yes",0.999705,1,1.47669196128845,"k",0,1,5
"221",82,1,220,265.713725490196,2.2,"bridges19.jpg","bridges","X",0,"yes",0.999705,1,1.47669196128845,"k",0,1,5
"222",82,1,221,275.613725490196,2.21,"bridges19.jpg","bridges","X",0,"yes",0.999705,1,1.47669196128845,"k",0,1,5
"223",82,1,222,277.013725490196,2.22,"bridges19.jpg","bridges","X",0,"yes",0.999705,1,1.47669196128845,"k",0,1,5
"224",82,1,223,281.513725490196,2.23,"bridges19.jpg","bridges","X",0,"yes",0.999705,1,1.47669196128845,"k",0,1,5
"225",82,1,224,301.613725490196,2.24,"bridges19.jpg","bridges","X",0,"yes",0.999705,1,1.47669196128845,"k",0,1,5
"226",82,1,225,302.404634581105,2.25,"bridges19.jpg","bridges","X",0,"yes",0.999705,1,1.47669196128845,"k",0,1,5
"227",82,1,226,311.091503267974,2.26,"bridges19.jpg","bridges","X",0,"yes",0.999705,1,1.47669196128845,"k",0,1,5
"228",82,1,227,308.040998217469,2.27,"bridges19.jpg","bridges","X",0,"yes",0.999705,1,1.47669196128845,"k",0,1,5
"229",82,1,228,306.758169934641,2.28,"bridges19.jpg","bridges","X",0,"yes",0.999705,1,1.47669196128845,"k",0,1,5
"230",82,1,229,316.313725490196,2.29,"bridges19.jpg","bridges","X",0,"yes",0.999705,1,1.47669196128845,"k",0,1,5
"231",82,1,230,320.202614379085,2.3,"bridges19.jpg","bridges","X",0,"yes",0.999705,1,1.47669196128845,"k",0,1,5
"232",82,1,231,333.495543672014,2.31,"bridges19.jpg","bridges","X",0,"yes",0.999705,1,1.47669196128845,"k",0,1,5
"233",82,1,232,331.758169934641,2.32,"bridges19.jpg","bridges","X",0,"yes",0.999705,1,1.47669196128845,"k",0,1,5
"234",82,1,233,338.859180035651,2.33,"bridges19.jpg","bridges","X",0,"yes",0.999705,1,1.47669196128845,"k",0,1,5
"235",82,1,234,340.202614379085,2.34,"bridges19.jpg","bridges","X",0,"yes",0.999705,1,1.47669196128845,"k",0,1,5
"236",82,1,235,346.040998217469,2.35,"bridges19.jpg","bridges","X",0,"yes",0.999705,1,1.47669196128845,"k",0,1,5
"237",82,1,236,351.980392156863,2.36,"bridges19.jpg","bridges","X",0,"yes",0.999705,1,1.47669196128845,"k",0,1,5
"238",82,1,237,357.404634581105,2.37,"bridges19.jpg","bridges","X",0,"yes",0.999705,1,1.47669196128845,"k",0,1,5
"239",82,1,238,354.424836601307,2.38,"bridges19.jpg","bridges","X",0,"yes",0.999705,1,1.47669196128845,"k",0,1,5
"240",82,1,239,366.613725490196,2.39,"bridges19.jpg","bridges","X",0,"yes",0.999705,1,1.47669196128845,"k",0,1,5
"241",82,1,240,353.713725490196,2.4,"bridges19.jpg","bridges","X",0,"yes",0.999705,1,1.47669196128845,"k",0,1,5
"242",82,1,241,354.013725490196,2.41,"bridges19.jpg","bridges","X",0,"yes",0.999705,1,1.47669196128845,"k",0,1,5
"243",82,1,242,339.013725490196,2.42,"bridges19.jpg","bridges","X",0,"yes",0.999705,1,1.47669196128845,"k",0,1,5
"244",82,1,243,350.913725490196,2.43,"bridges19.jpg","bridges","X",0,"yes",0.999705,1,1.47669196128845,"k",0,1,5
"245",82,1,244,338.713725490196,2.44,"bridges19.jpg","bridges","X",0,"yes",0.999705,1,1.47669196128845,"k",0,1,5
"246",82,1,245,332.213725490196,2.45,"bridges19.jpg","bridges","X",0,"yes",0.999705,1,1.47669196128845,"k",0,1,5
"247",82,1,246,329.013725490196,2.46,"bridges19.jpg","bridges","X",0,"yes",0.999705,1,1.47669196128845,"k",0,1,5
"248",82,1,247,329.813725490196,2.47,"bridges19.jpg","bridges","X",0,"yes",0.999705,1,1.47669196128845,"k",0,1,5
"249",82,1,248,335.713725490196,2.48,"bridges19.jpg","bridges","X",0,"yes",0.999705,1,1.47669196128845,"k",0,1,5
"250",82,1,249,343.113725490196,2.49,"bridges19.jpg","bridges","X",0,"yes",0.999705,1,1.47669196128845,"k",0,1,5
"251",82,1,250,354.135362917097,2.5,"bridges19.jpg","bridges","X",0,"yes",0.999705,1,1.47669196128845,"k",0,1,5
"252",82,1,251,349.778637770898,2.51,"bridges19.jpg","bridges","X",0,"yes",0.999705,1,1.47669196128845,"k",0,1,5
"253",82,1,252,345.421912624699,2.52,"bridges19.jpg","bridges","X",0,"yes",0.999705,1,1.47669196128845,"k",0,1,5
"254",82,1,253,341.0651874785,2.53,"bridges19.jpg","bridges","X",0,"yes",0.999705,1,1.47669196128845,"k",0,1,5
"255",82,1,254,336.708462332301,2.54,"bridges19.jpg","bridges","X",0,"yes",0.999705,1,1.47669196128845,"k",0,1,5
"256",82,1,255,332.351737186103,2.55,"bridges19.jpg","bridges","X",0,"yes",0.999705,1,1.47669196128845,"k",0,1,5
"257",82,1,256,328.212848297214,2.56,"bridges19.jpg","bridges","X",0,"yes",0.999705,1,1.47669196128845,"k",0,1,5
"258",82,1,257,323.856123151015,2.57,"bridges19.jpg","bridges","X",0,"yes",0.999705,1,1.47669196128845,"k",0,1,5
"259",82,1,258,319.499398004816,2.58,"bridges19.jpg","bridges","X",0,"yes",0.999705,1,1.47669196128845,"k",0,1,5
"260",82,1,259,315.142672858617,2.59,"bridges19.jpg","bridges","X",0,"yes",0.999705,1,1.47669196128845,"k",0,1,5
"261",82,1,260,310.785947712418,2.6,"bridges19.jpg","bridges","X",0,"yes",0.999705,1,1.47669196128845,"k",0,1,5
"262",82,1,261,306.42922256622,2.61,"bridges19.jpg","bridges","X",0,"yes",0.999705,1,1.47669196128845,"k",0,1,5
"263",82,1,262,302.072497420021,2.62,"bridges19.jpg","bridges","X",0,"yes",0.999705,1,1.47669196128845,"k",0,1,5
"264",82,1,263,297.715772273822,2.63,"bridges19.jpg","bridges","X",0,"yes",0.999705,1,1.47669196128845,"k",0,1,5
"265",82,1,264,293.359047127623,2.64,"bridges19.jpg","bridges","X",0,"yes",0.999705,1,1.47669196128845,"k",0,1,5
"266",82,1,265,289.002321981424,2.65,"bridges19.jpg","bridges","X",0,"yes",0.999705,1,1.47669196128845,"k",0,1,5
"267",82,1,266,284.645596835225,2.66,"bridges19.jpg","bridges","X",0,"yes",0.999705,1,1.47669196128845,"k",0,1,5
"268",82,1,267,280.288871689027,2.67,"bridges19.jpg","bridges","X",0,"yes",0.999705,1,1.47669196128845,"k",0,1,5
"269",82,1,268,275.932146542828,2.68,"bridges19.jpg","bridges","X",0,"yes",0.999705,1,1.47669196128845,"k",0,1,5
"270",82,1,269,271.575421396629,2.69,"bridges19.jpg","bridges","X",0,"yes",0.999705,1,1.47669196128845,"k",0,1,5
"271",82,1,270,267.21869625043,2.7,"bridges19.jpg","bridges","X",0,"yes",0.999705,1,1.47669196128845,"k",0,1,5
"272",82,1,271,262.861971104231,2.71,"bridges19.jpg","bridges","X",0,"yes",0.999705,1,1.47669196128845,"k",0,1,5
"273",82,1,272,258.505245958032,2.72,"bridges19.jpg","bridges","X",0,"yes",0.999705,1,1.47669196128845,"k",0,1,5
"274",82,1,273,254.148520811834,2.73,"bridges19.jpg","bridges","X",0,"yes",0.999705,1,1.47669196128845,"k",0,1,5
"275",82,1,274,249.791795665635,2.74,"bridges19.jpg","bridges","X",0,"yes",0.999705,1,1.47669196128845,"k",0,1,5
"276",82,1,275,245.435070519436,2.75,"bridges19.jpg","bridges","X",0,"yes",0.999705,1,1.47669196128845,"k",0,1,5
"277",82,1,276,241.078345373237,2.76,"bridges19.jpg","bridges","X",0,"yes",0.999705,1,1.47669196128845,"k",0,1,5
"278",82,1,277,236.721620227038,2.77,"bridges19.jpg","bridges","X",0,"yes",0.999705,1,1.47669196128845,"k",0,1,5
"279",82,1,278,232.364895080839,2.78,"bridges19.jpg","bridges","X",0,"yes",0.999705,1,1.47669196128845,"k",0,1,5
"280",82,1,279,228.008169934641,2.79,"bridges19.jpg","bridges","X",0,"yes",0.999705,1,1.47669196128845,"k",0,1,5
"281",82,1,280,223.651444788442,2.8,"bridges19.jpg","bridges","X",0,"yes",0.999705,1,1.47669196128845,"k",0,1,5
"282",82,1,281,219.294719642243,2.81,"bridges19.jpg","bridges","X",0,"yes",0.999705,1,1.47669196128845,"k",0,1,5
"283",82,1,282,214.937994496044,2.82,"bridges19.jpg","bridges","X",0,"yes",0.999705,1,1.47669196128845,"k",0,1,5
"284",82,1,283,210.581269349845,2.83,"bridges19.jpg","bridges","X",0,"yes",0.999705,1,1.47669196128845,"k",0,1,5
"285",82,1,284,200.844427244582,2.84,"bridges19.jpg","bridges","X",0,"yes",0.999705,1,1.47669196128845,"k",0,1,5
"286",82,1,285,198.813725490196,2.85,"bridges19.jpg","bridges","X",0,"yes",0.999705,1,1.47669196128845,"k",0,1,5
"287",82,1,286,194.513725490196,2.86,"bridges19.jpg","bridges","X",0,"yes",0.999705,1,1.47669196128845,"k",0,1,5
"288",82,1,287,193.813725490196,2.87,"bridges19.jpg","bridges","X",0,"yes",0.999705,1,1.47669196128845,"k",0,1,5
"289",82,1,288,190.913725490196,2.88,"bridges19.jpg","bridges","X",0,"yes",0.999705,1,1.47669196128845,"k",0,1,5
"290",82,1,289,191.513725490196,2.89,"bridges19.jpg","bridges","X",0,"yes",0.999705,1,1.47669196128845,"k",0,1,5
"291",82,1,290,180.313725490196,2.9,"bridges19.jpg","bridges","X",0,"yes",0.999705,1,1.47669196128845,"k",0,1,5
"292",82,1,291,187.413725490196,2.91,"bridges19.jpg","bridges","X",0,"yes",0.999705,1,1.47669196128845,"k",0,1,5
"293",82,1,292,187.713725490196,2.92,"bridges19.jpg","bridges","X",0,"yes",0.999705,1,1.47669196128845,"k",0,1,5
"294",82,1,293,194.313725490196,2.93,"bridges19.jpg","bridges","X",0,"yes",0.999705,1,1.47669196128845,"k",0,1,5
"295",82,1,294,199.013725490196,2.94,"bridges19.jpg","bridges","X",0,"yes",0.999705,1,1.47669196128845,"k",0,1,5
"296",82,1,295,201.113725490196,2.95,"bridges19.jpg","bridges","X",0,"yes",0.999705,1,1.47669196128845,"k",0,1,5
"297",82,1,296,213.913725490196,2.96,"bridges19.jpg","bridges","X",0,"yes",0.999705,1,1.47669196128845,"k",0,1,5
"298",82,1,297,212.413725490196,2.97,"bridges19.jpg","bridges","X",0,"yes",0.999705,1,1.47669196128845,"k",0,1,5
"299",82,1,298,213.013725490196,2.98,"bridges19.jpg","bridges","X",0,"yes",0.999705,1,1.47669196128845,"k",0,1,5
"300",82,1,299,216.613725490196,2.99,"bridges19.jpg","bridges","X",0,"yes",0.999705,1,1.47669196128845,"k",0,1,5
"301",82,1,300,213.613725490196,3,"bridges19.jpg","bridges","X",0,"yes",0.999705,1,1.47669196128845,"k",0,1,5
"302",82,1,301,204.513725490196,3.01,"bridges19.jpg","bridges","X",0,"yes",0.999705,1,1.47669196128845,"k",0,1,5
"303",82,1,302,213.313725490196,3.02,"bridges19.jpg","bridges","X",0,"yes",0.999705,1,1.47669196128845,"k",0,1,5
"304",82,1,303,218.013725490196,3.03,"bridges19.jpg","bridges","X",0,"yes",0.999705,1,1.47669196128845,"k",0,1,5
"305",82,1,304,216.713725490196,3.04,"bridges19.jpg","bridges","X",0,"yes",0.999705,1,1.47669196128845,"k",0,1,5
"306",82,1,305,212.013725490196,3.05,"bridges19.jpg","bridges","X",0,"yes",0.999705,1,1.47669196128845,"k",0,1,5
"307",82,1,306,192.613725490196,3.06,"bridges19.jpg","bridges","X",0,"yes",0.999705,1,1.47669196128845,"k",0,1,5
"308",82,1,307,196.913725490196,3.07,"bridges19.jpg","bridges","X",0,"yes",0.999705,1,1.47669196128845,"k",0,1,5
"309",82,1,308,194.313725490196,3.08,"bridges19.jpg","bridges","X",0,"yes",0.999705,1,1.47669196128845,"k",0,1,5
"310",82,1,309,194.413725490196,3.09,"bridges19.jpg","bridges","X",0,"yes",0.999705,1,1.47669196128845,"k",0,1,5
"311",82,1,310,184.513725490196,3.1,"bridges19.jpg","bridges","X",0,"yes",0.999705,1,1.47669196128845,"k",0,1,5
"312",82,1,311,186.813725490196,3.11,"bridges19.jpg","bridges","X",0,"yes",0.999705,1,1.47669196128845,"k",0,1,5
"313",82,1,312,187.013725490196,3.12,"bridges19.jpg","bridges","X",0,"yes",0.999705,1,1.47669196128845,"k",0,1,5
"314",82,1,313,174.413725490196,3.13,"bridges19.jpg","bridges","X",0,"yes",0.999705,1,1.47669196128845,"k",0,1,5
"315",82,1,314,176.913725490196,3.14,"bridges19.jpg","bridges","X",0,"yes",0.999705,1,1.47669196128845,"k",0,1,5
"316",82,1,315,176.913725490196,3.15,"bridges19.jpg","bridges","X",0,"yes",0.999705,1,1.47669196128845,"k",0,1,5
"317",82,1,316,167.013725490196,3.16,"bridges19.jpg","bridges","X",0,"yes",0.999705,1,1.47669196128845,"k",0,1,5
"318",82,1,317,161.013725490196,3.17,"bridges19.jpg","bridges","X",0,"yes",0.999705,1,1.47669196128845,"k",0,1,5
"319",82,1,318,169.113725490196,3.18,"bridges19.jpg","bridges","X",0,"yes",0.999705,1,1.47669196128845,"k",0,1,5
"320",82,1,319,170.913725490196,3.19,"bridges19.jpg","bridges","X",0,"yes",0.999705,1,1.47669196128845,"k",0,1,5
"321",82,1,320,172.613725490196,3.2,"bridges19.jpg","bridges","X",0,"yes",0.999705,1,1.47669196128845,"k",0,1,5
"322",82,1,321,174.913725490196,3.21,"bridges19.jpg","bridges","X",0,"yes",0.999705,1,1.47669196128845,"k",0,1,5
"323",82,1,322,171.313725490196,3.22,"bridges19.jpg","bridges","X",0,"yes",0.999705,1,1.47669196128845,"k",0,1,5
"324",82,1,323,158.713725490196,3.23,"bridges19.jpg","bridges","X",0,"yes",0.999705,1,1.47669196128845,"k",0,1,5
"325",82,1,324,156.013725490196,3.24,"bridges19.jpg","bridges","X",0,"yes",0.999705,1,1.47669196128845,"k",0,1,5
"326",82,1,325,154.513725490196,3.25,"bridges19.jpg","bridges","X",0,"yes",0.999705,1,1.47669196128845,"k",0,1,5
"327",82,1,326,164.913725490196,3.26,"bridges19.jpg","bridges","X",0,"yes",0.999705,1,1.47669196128845,"k",0,1,5
"328",82,1,327,169.913725490196,3.27,"bridges19.jpg","bridges","X",0,"yes",0.999705,1,1.47669196128845,"k",0,1,5
"329",82,1,328,186.913725490196,3.28,"bridges19.jpg","bridges","X",0,"yes",0.999705,1,1.47669196128845,"k",0,1,5
"330",82,1,329,178.613725490196,3.29,"bridges19.jpg","bridges","X",0,"yes",0.999705,1,1.47669196128845,"k",0,1,5
"331",82,1,330,182.113725490196,3.3,"bridges19.jpg","bridges","X",0,"yes",0.999705,1,1.47669196128845,"k",0,1,5
"332",82,1,331,191.113725490196,3.31,"bridges19.jpg","bridges","X",0,"yes",0.999705,1,1.47669196128845,"k",0,1,5
"333",82,1,332,193.213725490196,3.32,"bridges19.jpg","bridges","X",0,"yes",0.999705,1,1.47669196128845,"k",0,1,5
"334",82,1,333,187.613725490196,3.33,"bridges19.jpg","bridges","X",0,"yes",0.999705,1,1.47669196128845,"k",0,1,5
"335",82,1,334,192.613725490196,3.34,"bridges19.jpg","bridges","X",0,"yes",0.999705,1,1.47669196128845,"k",0,1,5
"336",82,1,335,179.459344825544,3.35,"bridges19.jpg","bridges","X",0,"yes",0.999705,1,1.47669196128845,"k",0,1,5
"337",82,1,336,173.933060837628,3.36,"bridges19.jpg","bridges","X",0,"yes",0.999705,1,1.47669196128845,"k",0,1,5
"338",82,1,337,173.570523073278,3.37,"bridges19.jpg","bridges","X",0,"yes",0.999705,1,1.47669196128845,"k",0,1,5
"339",82,1,338,173.207985308927,3.38,"bridges19.jpg","bridges","X",0,"yes",0.999705,1,1.47669196128845,"k",0,1,5
"340",82,1,339,172.845447544577,3.39,"bridges19.jpg","bridges","X",0,"yes",0.999705,1,1.47669196128845,"k",0,1,5
"341",82,1,340,172.482909780226,3.4,"bridges19.jpg","bridges","X",0,"yes",0.999705,1,1.47669196128845,"k",0,1,5
"342",82,1,341,172.120372015876,3.41,"bridges19.jpg","bridges","X",0,"yes",0.999705,1,1.47669196128845,"k",0,1,5
"343",82,1,342,171.757834251525,3.42,"bridges19.jpg","bridges","X",0,"yes",0.999705,1,1.47669196128845,"k",0,1,5
"344",82,1,343,171.395296487175,3.43,"bridges19.jpg","bridges","X",0,"yes",0.999705,1,1.47669196128845,"k",0,1,5
"345",82,1,344,171.032758722825,3.44,"bridges19.jpg","bridges","X",0,"yes",0.999705,1,1.47669196128845,"k",0,1,5
"346",82,1,345,170.670220958474,3.45,"bridges19.jpg","bridges","X",0,"yes",0.999705,1,1.47669196128845,"k",0,1,5
"347",82,1,346,170.307683194124,3.46,"bridges19.jpg","bridges","X",0,"yes",0.999705,1,1.47669196128845,"k",0,1,5
"348",82,1,347,169.945145429773,3.47,"bridges19.jpg","bridges","X",0,"yes",0.999705,1,1.47669196128845,"k",0,1,5
"349",82,1,348,169.582607665423,3.48,"bridges19.jpg","bridges","X",0,"yes",0.999705,1,1.47669196128845,"k",0,1,5
"350",82,1,349,169.220069901072,3.49,"bridges19.jpg","bridges","X",0,"yes",0.999705,1,1.47669196128845,"k",0,1,5
"351",82,1,350,168.839405248504,3.5,"bridges19.jpg","bridges","X",0,"yes",0.999705,1,1.47669196128845,"k",0,1,5
"352",82,1,351,168.476867484154,3.51,"bridges19.jpg","bridges","X",0,"yes",0.999705,1,1.47669196128845,"k",0,1,5
"353",82,1,352,168.132456608021,3.52,"bridges19.jpg","bridges","X",0,"yes",0.999705,1,1.47669196128845,"k",0,1,5
"354",82,1,353,167.76991884367,3.53,"bridges19.jpg","bridges","X",0,"yes",0.999705,1,1.47669196128845,"k",0,1,5
"355",82,1,354,167.40738107932,3.54,"bridges19.jpg","bridges","X",0,"yes",0.999705,1,1.47669196128845,"k",0,1,5
"356",82,1,355,167.04484331497,3.55,"bridges19.jpg","bridges","X",0,"yes",0.999705,1,1.47669196128845,"k",0,1,5
"357",82,1,356,166.682305550619,3.56,"bridges19.jpg","bridges","X",0,"yes",0.999705,1,1.47669196128845,"k",0,1,5
"358",82,1,357,166.319767786269,3.57,"bridges19.jpg","bridges","X",0,"yes",0.999705,1,1.47669196128845,"k",0,1,5
"359",82,1,358,165.957230021918,3.58,"bridges19.jpg","bridges","X",0,"yes",0.999705,1,1.47669196128845,"k",0,1,5
"360",82,1,359,165.594692257568,3.59,"bridges19.jpg","bridges","X",0,"yes",0.999705,1,1.47669196128845,"k",0,1,5
"361",82,1,360,165.232154493217,3.6,"bridges19.jpg","bridges","X",0,"yes",0.999705,1,1.47669196128845,"k",0,1,5
"362",82,1,361,164.869616728867,3.61,"bridges19.jpg","bridges","X",0,"yes",0.999705,1,1.47669196128845,"k",0,1,5
"363",82,1,362,164.507078964516,3.62,"bridges19.jpg","bridges","X",0,"yes",0.999705,1,1.47669196128845,"k",0,1,5
"364",82,1,363,164.144541200166,3.63,"bridges19.jpg","bridges","X",0,"yes",0.999705,1,1.47669196128845,"k",0,1,5
"365",82,1,364,163.782003435816,3.64,"bridges19.jpg","bridges","X",0,"yes",0.999705,1,1.47669196128845,"k",0,1,5
"366",82,1,365,163.419465671465,3.65,"bridges19.jpg","bridges","X",0,"yes",0.999705,1,1.47669196128845,"k",0,1,5
"367",82,1,366,163.056927907115,3.66,"bridges19.jpg","bridges","X",0,"yes",0.999705,1,1.47669196128845,"k",0,1,5
"368",82,1,367,162.694390142764,3.67,"bridges19.jpg","bridges","X",0,"yes",0.999705,1,1.47669196128845,"k",0,1,5
"369",82,1,368,156.368106154849,3.68,"bridges19.jpg","bridges","X",0,"yes",0.999705,1,1.47669196128845,"k",0,1,5
"370",82,1,369,162.113725490196,3.69,"bridges19.jpg","bridges","X",0,"yes",0.999705,1,1.47669196128845,"k",0,1,5
"371",82,1,370,134.113725490196,3.7,"bridges19.jpg","bridges","X",0,"yes",0.999705,1,1.47669196128845,"k",0,1,5
"372",82,1,371,134.713725490196,3.71,"bridges19.jpg","bridges","X",0,"yes",0.999705,1,1.47669196128845,"k",0,1,5
"373",82,1,372,131.513725490196,3.72,"bridges19.jpg","bridges","X",0,"yes",0.999705,1,1.47669196128845,"k",0,1,5
"374",82,1,373,135.713725490196,3.73,"bridges19.jpg","bridges","X",0,"yes",0.999705,1,1.47669196128845,"k",0,1,5
"375",82,1,374,137.313725490196,3.74,"bridges19.jpg","bridges","X",0,"yes",0.999705,1,1.47669196128845,"k",0,1,5
"376",82,1,375,139.95008912656,3.75,"bridges19.jpg","bridges","X",0,"yes",0.999705,1,1.47669196128845,"k",0,1,5
"377",82,1,376,148.091503267974,3.76,"bridges19.jpg","bridges","X",0,"yes",0.999705,1,1.47669196128845,"k",0,1,5
"378",82,1,377,146.113725490196,3.77,"bridges19.jpg","bridges","X",0,"yes",0.999705,1,1.47669196128845,"k",0,1,5
"379",82,1,378,155.313725490196,3.78,"bridges19.jpg","bridges","X",0,"yes",0.999705,1,1.47669196128845,"k",0,1,5
"380",82,1,379,160.013725490196,3.79,"bridges19.jpg","bridges","X",0,"yes",0.999705,1,1.47669196128845,"k",0,1,5
"381",82,1,380,161.813725490196,3.8,"bridges19.jpg","bridges","X",0,"yes",0.999705,1,1.47669196128845,"k",0,1,5
"382",82,1,381,152.613725490196,3.81,"bridges19.jpg","bridges","X",0,"yes",0.999705,1,1.47669196128845,"k",0,1,5
"383",82,1,382,160.513725490196,3.82,"bridges19.jpg","bridges","X",0,"yes",0.999705,1,1.47669196128845,"k",0,1,5
"384",82,1,383,171.613725490196,3.83,"bridges19.jpg","bridges","X",0,"yes",0.999705,1,1.47669196128845,"k",0,1,5
"385",82,1,384,172.613725490196,3.84,"bridges19.jpg","bridges","X",0,"yes",0.999705,1,1.47669196128845,"k",0,1,5
"386",82,1,385,173.013725490196,3.85,"bridges19.jpg","bridges","X",0,"yes",0.999705,1,1.47669196128845,"k",0,1,5
"387",82,1,386,180.813725490196,3.86,"bridges19.jpg","bridges","X",0,"yes",0.999705,1,1.47669196128845,"k",0,1,5
"388",82,1,387,184.513725490196,3.87,"bridges19.jpg","bridges","X",0,"yes",0.999705,1,1.47669196128845,"k",0,1,5
"389",82,1,388,182.513725490196,3.88,"bridges19.jpg","bridges","X",0,"yes",0.999705,1,1.47669196128845,"k",0,1,5
"390",82,1,389,182.613725490196,3.89,"bridges19.jpg","bridges","X",0,"yes",0.999705,1,1.47669196128845,"k",0,1,5
"391",82,1,390,176.813725490196,3.9,"bridges19.jpg","bridges","X",0,"yes",0.999705,1,1.47669196128845,"k",0,1,5
"392",82,1,391,174.913725490196,3.91,"bridges19.jpg","bridges","X",0,"yes",0.999705,1,1.47669196128845,"k",0,1,5
"393",82,1,392,175.413725490196,3.92,"bridges19.jpg","bridges","X",0,"yes",0.999705,1,1.47669196128845,"k",0,1,5
"394",82,1,393,176.213725490196,3.93,"bridges19.jpg","bridges","X",0,"yes",0.999705,1,1.47669196128845,"k",0,1,5
"395",82,1,394,179.313725490196,3.94,"bridges19.jpg","bridges","X",0,"yes",0.999705,1,1.47669196128845,"k",0,1,5
"396",82,1,395,170.013725490196,3.95,"bridges19.jpg","bridges","X",0,"yes",0.999705,1,1.47669196128845,"k",0,1,5
"397",82,1,396,159.313725490196,3.96,"bridges19.jpg","bridges","X",0,"yes",0.999705,1,1.47669196128845,"k",0,1,5
"398",82,1,397,148.013725490196,3.97,"bridges19.jpg","bridges","X",0,"yes",0.999705,1,1.47669196128845,"k",0,1,5
"399",82,1,398,154.313725490196,3.98,"bridges19.jpg","bridges","X",0,"yes",0.999705,1,1.47669196128845,"k",0,1,5
"400",82,1,399,149.913725490196,3.99,"bridges19.jpg","bridges","X",0,"yes",0.999705,1,1.47669196128845,"k",0,1,5
"401",82,1,400,154.313725490196,4,"bridges19.jpg","bridges","X",0,"yes",0.999705,1,1.47669196128845,"k",0,1,5
"402",82,1,401,137.313725490196,4.01,"bridges19.jpg","bridges","X",0,"yes",0.999705,1,1.47669196128845,"k",0,1,5
"403",82,1,402,135.535947712418,4.02,"bridges19.jpg","bridges","X",0,"yes",0.999705,1,1.47669196128845,"k",0,1,5
"404",82,1,403,135.313725490196,4.03,"bridges19.jpg","bridges","X",0,"yes",0.999705,1,1.47669196128845,"k",0,1,5
"405",82,1,404,118.613725490196,4.04,"bridges19.jpg","bridges","X",0,"yes",0.999705,1,1.47669196128845,"k",0,1,5
"406",82,1,405,108.222816399287,4.05,"bridges19.jpg","bridges","X",0,"yes",0.999705,1,1.47669196128845,"k",0,1,5
"407",82,1,406,120.647058823529,4.06,"bridges19.jpg","bridges","X",0,"yes",0.999705,1,1.47669196128845,"k",0,1,5
"408",82,1,407,113.113725490196,4.07,"bridges19.jpg","bridges","X",0,"yes",0.999705,1,1.47669196128845,"k",0,1,5
"409",82,1,408,114.413725490196,4.08,"bridges19.jpg","bridges","X",0,"yes",0.999705,1,1.47669196128845,"k",0,1,5
"410",82,1,409,113.677361853832,4.09,"bridges19.jpg","bridges","X",0,"yes",0.999705,1,1.47669196128845,"k",0,1,5
"411",82,1,410,113.647058823529,4.1,"bridges19.jpg","bridges","X",0,"yes",0.999705,1,1.47669196128845,"k",0,1,5
"412",82,1,411,108.513725490196,4.11,"bridges19.jpg","bridges","X",0,"yes",0.999705,1,1.47669196128845,"k",0,1,5
"413",82,1,412,100.513725490196,4.12,"bridges19.jpg","bridges","X",0,"yes",0.999705,1,1.47669196128845,"k",0,1,5
"414",82,1,413,109.859180035651,4.13,"bridges19.jpg","bridges","X",0,"yes",0.999705,1,1.47669196128845,"k",0,1,5
"415",82,1,414,109.424836601307,4.14,"bridges19.jpg","bridges","X",0,"yes",0.999705,1,1.47669196128845,"k",0,1,5
"416",82,1,415,109.313725490196,4.15,"bridges19.jpg","bridges","X",0,"yes",0.999705,1,1.47669196128845,"k",0,1,5
"417",82,1,416,80.2137254901961,4.16,"bridges19.jpg","bridges","X",0,"yes",0.999705,1,1.47669196128845,"k",0,1,5
"418",82,1,417,89.131907308378,4.17,"bridges19.jpg","bridges","X",0,"yes",0.999705,1,1.47669196128845,"k",0,1,5
"419",82,1,418,90.4248366013072,4.18,"bridges19.jpg","bridges","X",0,"yes",0.999705,1,1.47669196128845,"k",0,1,5
"420",82,1,419,80.9137254901961,4.19,"bridges19.jpg","bridges","X",0,"yes",0.999705,1,1.47669196128845,"k",0,1,5
"421",82,1,420,74.8137254901961,4.2,"bridges19.jpg","bridges","X",0,"yes",0.999705,1,1.47669196128845,"k",0,1,5
"422",82,1,421,72.3137254901961,4.21,"bridges19.jpg","bridges","X",0,"yes",0.999705,1,1.47669196128845,"k",0,1,5
"423",82,1,422,73.202614379085,4.22,"bridges19.jpg","bridges","X",0,"yes",0.999705,1,1.47669196128845,"k",0,1,5
"424",82,1,423,77.2137254901961,4.23,"bridges19.jpg","bridges","X",0,"yes",0.999705,1,1.47669196128845,"k",0,1,5
"425",82,1,424,64.3137254901961,4.24,"bridges19.jpg","bridges","X",0,"yes",0.999705,1,1.47669196128845,"k",0,1,5
"426",82,1,425,64.0409982174689,4.25,"bridges19.jpg","bridges","X",0,"yes",0.999705,1,1.47669196128845,"k",0,1,5
"427",82,1,426,62.0137254901961,4.26,"bridges19.jpg","bridges","X",0,"yes",0.999705,1,1.47669196128845,"k",0,1,5
"428",82,1,427,65.4248366013072,4.27,"bridges19.jpg","bridges","X",0,"yes",0.999705,1,1.47669196128845,"k",0,1,5
"429",82,1,428,57.9137254901961,4.28,"bridges19.jpg","bridges","X",0,"yes",0.999705,1,1.47669196128845,"k",0,1,5
"430",82,1,429,62.6137254901961,4.29,"bridges19.jpg","bridges","X",0,"yes",0.999705,1,1.47669196128845,"k",0,1,5
"431",82,1,430,51.7682709447416,4.3,"bridges19.jpg","bridges","X",0,"yes",0.999705,1,1.47669196128845,"k",0,1,5
"432",82,1,431,40.8692810457517,4.31,"bridges19.jpg","bridges","X",0,"yes",0.999705,1,1.47669196128845,"k",0,1,5
"433",82,1,432,39.2140276049998,4.32,"bridges19.jpg","bridges","X",0,"yes",0.999705,1,1.47669196128845,"k",0,1,5
"434",82,1,433,39.0327587228246,4.33,"bridges19.jpg","bridges","X",0,"yes",0.999705,1,1.47669196128845,"k",0,1,5
"435",82,1,434,38.8424263965406,4.34,"bridges19.jpg","bridges","X",0,"yes",0.999705,1,1.47669196128845,"k",0,1,5
"436",82,1,435,38.6611575143653,4.35,"bridges19.jpg","bridges","X",0,"yes",0.999705,1,1.47669196128845,"k",0,1,5
"437",82,1,436,38.4889520762989,4.36,"bridges19.jpg","bridges","X",0,"yes",0.999705,1,1.47669196128845,"k",0,1,5
"438",82,1,437,38.3076831941236,4.37,"bridges19.jpg","bridges","X",0,"yes",0.999705,1,1.47669196128845,"k",0,1,5
"439",82,1,438,38.1173508678396,4.38,"bridges19.jpg","bridges","X",0,"yes",0.999705,1,1.47669196128845,"k",0,1,5
"440",82,1,439,37.9360819856644,4.39,"bridges19.jpg","bridges","X",0,"yes",0.999705,1,1.47669196128845,"k",0,1,5
"441",82,1,440,37.7638765475979,4.4,"bridges19.jpg","bridges","X",0,"yes",0.999705,1,1.47669196128845,"k",0,1,5
"442",82,1,441,37.5826076654227,4.41,"bridges19.jpg","bridges","X",0,"yes",0.999705,1,1.47669196128845,"k",0,1,5
"443",82,1,442,37.3922753391387,4.42,"bridges19.jpg","bridges","X",0,"yes",0.999705,1,1.47669196128845,"k",0,1,5
"444",82,1,443,37.2110064569635,4.43,"bridges19.jpg","bridges","X",0,"yes",0.999705,1,1.47669196128845,"k",0,1,5
"445",82,1,444,37.0388010188971,4.44,"bridges19.jpg","bridges","X",0,"yes",0.999705,1,1.47669196128845,"k",0,1,5
"446",82,1,445,36.8575321367218,4.45,"bridges19.jpg","bridges","X",0,"yes",0.999705,1,1.47669196128845,"k",0,1,5
"447",82,1,446,36.6671998104378,4.46,"bridges19.jpg","bridges","X",0,"yes",0.999705,1,1.47669196128845,"k",0,1,5
"448",82,1,447,36.4859309282626,4.47,"bridges19.jpg","bridges","X",0,"yes",0.999705,1,1.47669196128845,"k",0,1,5
"449",82,1,448,36.3137254901961,4.48,"bridges19.jpg","bridges","X",0,"yes",0.999705,1,1.47669196128845,"k",0,1,5
"450",82,1,449,36.1324566080209,4.49,"bridges19.jpg","bridges","X",0,"yes",0.999705,1,1.47669196128845,"k",0,1,5
"451",82,1,450,35.9421242817369,4.5,"bridges19.jpg","bridges","X",0,"yes",0.999705,1,1.47669196128845,"k",0,1,5
"452",82,1,451,35.7517919554529,4.51,"bridges19.jpg","bridges","X",0,"yes",0.999705,1,1.47669196128845,"k",0,1,5
"453",82,1,452,35.5795865173864,4.52,"bridges19.jpg","bridges","X",0,"yes",0.999705,1,1.47669196128845,"k",0,1,5
"454",82,1,453,35.40738107932,4.53,"bridges19.jpg","bridges","X",0,"yes",0.999705,1,1.47669196128845,"k",0,1,5
"455",82,1,454,35.2261121971448,4.54,"bridges19.jpg","bridges","X",0,"yes",0.999705,1,1.47669196128845,"k",0,1,5
"456",82,1,455,35.0357798708608,4.55,"bridges19.jpg","bridges","X",0,"yes",0.999705,1,1.47669196128845,"k",0,1,5
"457",82,1,456,34.8545109886856,4.56,"bridges19.jpg","bridges","X",0,"yes",0.999705,1,1.47669196128845,"k",0,1,5
"458",82,1,457,34.6823055506191,4.57,"bridges19.jpg","bridges","X",0,"yes",0.999705,1,1.47669196128845,"k",0,1,5
"459",82,1,458,34.5010366684439,4.58,"bridges19.jpg","bridges","X",0,"yes",0.999705,1,1.47669196128845,"k",0,1,5
"460",82,1,459,34.3107043421599,4.59,"bridges19.jpg","bridges","X",0,"yes",0.999705,1,1.47669196128845,"k",0,1,5
"461",82,1,460,34.1294354599846,4.6,"bridges19.jpg","bridges","X",0,"yes",0.999705,1,1.47669196128845,"k",0,1,5
"462",82,1,461,33.9572300219182,4.61,"bridges19.jpg","bridges","X",0,"yes",0.999705,1,1.47669196128845,"k",0,1,5
"463",82,1,462,33.7759611397429,4.62,"bridges19.jpg","bridges","X",0,"yes",0.999705,1,1.47669196128845,"k",0,1,5
"464",82,1,463,33.585628813459,4.63,"bridges19.jpg","bridges","X",0,"yes",0.999705,1,1.47669196128845,"k",0,1,5
"465",82,1,464,33.4043599312837,4.64,"bridges19.jpg","bridges","X",0,"yes",0.999705,1,1.47669196128845,"k",0,1,5
"466",82,1,465,33.4137254901961,4.65,"bridges19.jpg","bridges","X",0,"yes",0.999705,1,1.47669196128845,"k",0,1,5
"467",82,1,466,33.8137254901961,4.66,"bridges19.jpg","bridges","X",0,"yes",0.999705,1,1.47669196128845,"k",0,1,5
"468",82,1,467,5.13190730837795,4.67,"bridges19.jpg","bridges","X",0,"yes",0.999705,1,1.47669196128845,"k",0,1,5
"469",82,1,468,-3.13071895424831,4.68,"bridges19.jpg","bridges","X",0,"yes",0.999705,1,1.47669196128845,"k",0,1,5
"470",82,1,469,22.9137254901961,4.69,"bridges19.jpg","bridges","X",0,"yes",0.999705,1,1.47669196128845,"k",0,1,5
"471",82,1,470,42.8137254901961,4.7,"bridges19.jpg","bridges","X",0,"yes",0.999705,1,1.47669196128845,"k",0,1,5
"472",82,1,471,34.7682709447416,4.71,"bridges19.jpg","bridges","X",0,"yes",0.999705,1,1.47669196128845,"k",0,1,5
"473",82,1,472,48.3137254901961,4.72,"bridges19.jpg","bridges","X",0,"yes",0.999705,1,1.47669196128845,"k",0,1,5
"474",82,1,473,50.4137254901961,4.73,"bridges19.jpg","bridges","X",0,"yes",0.999705,1,1.47669196128845,"k",0,1,5
"475",82,1,474,52.1137254901961,4.74,"bridges19.jpg","bridges","X",0,"yes",0.999705,1,1.47669196128845,"k",0,1,5
"476",82,1,475,54.222816399287,4.75,"bridges19.jpg","bridges","X",0,"yes",0.999705,1,1.47669196128845,"k",0,1,5
"477",82,1,476,40.2137254901961,4.76,"bridges19.jpg","bridges","X",0,"yes",0.999705,1,1.47669196128845,"k",0,1,5
"478",82,1,477,42.3137254901961,4.77,"bridges19.jpg","bridges","X",0,"yes",0.999705,1,1.47669196128845,"k",0,1,5
"479",82,1,478,63.5137254901961,4.78,"bridges19.jpg","bridges","X",0,"yes",0.999705,1,1.47669196128845,"k",0,1,5
"480",82,1,479,55.7137254901961,4.79,"bridges19.jpg","bridges","X",0,"yes",0.999705,1,1.47669196128845,"k",0,1,5
"481",82,1,480,66.7682709447416,4.8,"bridges19.jpg","bridges","X",0,"yes",0.999705,1,1.47669196128845,"k",0,1,5
"482",82,1,481,63.9803921568628,4.81,"bridges19.jpg","bridges","X",0,"yes",0.999705,1,1.47669196128845,"k",0,1,5
"483",82,1,482,69.4137254901961,4.82,"bridges19.jpg","bridges","X",0,"yes",0.999705,1,1.47669196128845,"k",0,1,5
"484",82,1,483,52.9137254901961,4.83,"bridges19.jpg","bridges","X",0,"yes",0.999705,1,1.47669196128845,"k",0,1,5
"485",82,1,484,54.9500891265598,4.84,"bridges19.jpg","bridges","X",0,"yes",0.999705,1,1.47669196128845,"k",0,1,5
"486",82,1,485,58.202614379085,4.85,"bridges19.jpg","bridges","X",0,"yes",0.999705,1,1.47669196128845,"k",0,1,5
"487",82,1,486,59.9137254901961,4.86,"bridges19.jpg","bridges","X",0,"yes",0.999705,1,1.47669196128845,"k",0,1,5
"488",82,1,487,54.2137254901961,4.87,"bridges19.jpg","bridges","X",0,"yes",0.999705,1,1.47669196128845,"k",0,1,5
"489",82,1,488,56.3137254901961,4.88,"bridges19.jpg","bridges","X",0,"yes",0.999705,1,1.47669196128845,"k",0,1,5
"490",82,1,489,53.202614379085,4.89,"bridges19.jpg","bridges","X",0,"yes",0.999705,1,1.47669196128845,"k",0,1,5
"491",82,1,490,39.7137254901961,4.9,"bridges19.jpg","bridges","X",0,"yes",0.999705,1,1.47669196128845,"k",0,1,5
"492",82,1,491,47.3137254901961,4.91,"bridges19.jpg","bridges","X",0,"yes",0.999705,1,1.47669196128845,"k",0,1,5
"493",82,1,492,23.4046345811052,4.92,"bridges19.jpg","bridges","X",0,"yes",0.999705,1,1.47669196128845,"k",0,1,5
"494",82,1,493,22.202614379085,4.93,"bridges19.jpg","bridges","X",0,"yes",0.999705,1,1.47669196128845,"k",0,1,5
"495",82,1,494,26.0137254901961,4.94,"bridges19.jpg","bridges","X",0,"yes",0.999705,1,1.47669196128845,"k",0,1,5
"496",82,1,495,21.5137254901961,4.95,"bridges19.jpg","bridges","X",0,"yes",0.999705,1,1.47669196128845,"k",0,1,5
"497",82,1,496,24.4046345811052,4.96,"bridges19.jpg","bridges","X",0,"yes",0.999705,1,1.47669196128845,"k",0,1,5
"498",82,1,497,29.5359477124184,4.97,"bridges19.jpg","bridges","X",0,"yes",0.999705,1,1.47669196128845,"k",0,1,5
"499",82,1,498,14.4137254901961,4.98,"bridges19.jpg","bridges","X",0,"yes",0.999705,1,1.47669196128845,"k",0,1,5
"500",82,1,499,28.9137254901961,4.99,"bridges19.jpg","bridges","X",0,"yes",0.999705,1,1.47669196128845,"k",0,1,5
"501",82,1,500,29.9500891265598,5,"bridges19.jpg","bridges","X",0,"yes",0.999705,1,1.47669196128845,"k",0,1,5
"502",82,1,501,27.7137254901961,5.01,"bridges19.jpg","bridges","X",0,"yes",0.999705,1,1.47669196128845,"k",0,1,5
"503",82,1,502,30.3137254901961,5.02,"bridges19.jpg","bridges","X",0,"yes",0.999705,1,1.47669196128845,"k",0,1,5
"504",82,1,503,20.8137254901961,5.03,"bridges19.jpg","bridges","X",0,"yes",0.999705,1,1.47669196128845,"k",0,1,5
"505",82,1,504,23.8137254901961,5.04,"bridges19.jpg","bridges","X",0,"yes",0.999705,1,1.47669196128845,"k",0,1,5
"506",82,1,505,33.8339660638718,5.05,"bridges19.jpg","bridges","X",0,"yes",0.999705,1,1.47669196128845,"k",0,1,5
"507",82,1,506,32.9091453375244,5.06,"bridges19.jpg","bridges","X",0,"yes",0.999705,1,1.47669196128845,"k",0,1,5
"508",82,1,507,31.7971860499925,5.07,"bridges19.jpg","bridges","X",0,"yes",0.999705,1,1.47669196128845,"k",0,1,5
"509",82,1,508,30.6267025894327,5.08,"bridges19.jpg","bridges","X",0,"yes",0.999705,1,1.47669196128845,"k",0,1,5
"510",82,1,509,29.3976949558449,5.09,"bridges19.jpg","bridges","X",0,"yes",0.999705,1,1.47669196128845,"k",0,1,5
"511",82,1,510,28.2272114952852,5.1,"bridges19.jpg","bridges","X",0,"yes",0.999705,1,1.47669196128845,"k",0,1,5
"512",82,1,511,27.1152522077534,5.11,"bridges19.jpg","bridges","X",0,"yes",0.999705,1,1.47669196128845,"k",0,1,5
"513",82,1,512,25.9447687471936,5.12,"bridges19.jpg","bridges","X",0,"yes",0.999705,1,1.47669196128845,"k",0,1,5
"514",82,1,513,24.7742852866338,5.13,"bridges19.jpg","bridges","X",0,"yes",0.999705,1,1.47669196128845,"k",0,1,5
"515",82,1,514,23.603801826074,5.14,"bridges19.jpg","bridges","X",0,"yes",0.999705,1,1.47669196128845,"k",0,1,5
"516",82,1,515,22.4333183655142,5.15,"bridges19.jpg","bridges","X",0,"yes",0.999705,1,1.47669196128845,"k",0,1,5
"517",82,1,516,21.2628349049544,5.16,"bridges19.jpg","bridges","X",0,"yes",0.999705,1,1.47669196128845,"k",0,1,5
"518",82,1,517,20.0923514443946,5.17,"bridges19.jpg","bridges","X",0,"yes",0.999705,1,1.47669196128845,"k",0,1,5
"519",82,1,518,18.9218679838348,5.18,"bridges19.jpg","bridges","X",0,"yes",0.999705,1,1.47669196128845,"k",0,1,5
"520",82,1,519,17.751384523275,5.19,"bridges19.jpg","bridges","X",0,"yes",0.999705,1,1.47669196128845,"k",0,1,5
"521",82,1,520,16.5809010627153,5.2,"bridges19.jpg","bridges","X",0,"yes",0.999705,1,1.47669196128845,"k",0,1,5
"522",82,1,521,15.4104176021555,5.21,"bridges19.jpg","bridges","X",0,"yes",0.999705,1,1.47669196128845,"k",0,1,5
"523",82,1,522,14.2399341415957,5.22,"bridges19.jpg","bridges","X",0,"yes",0.999705,1,1.47669196128845,"k",0,1,5
"524",82,1,523,13.0694506810358,5.23,"bridges19.jpg","bridges","X",0,"yes",0.999705,1,1.47669196128845,"k",0,1,5
"525",82,1,524,11.898967220476,5.24,"bridges19.jpg","bridges","X",0,"yes",0.999705,1,1.47669196128845,"k",0,1,5
"526",82,1,525,10.7284837599162,5.25,"bridges19.jpg","bridges","X",0,"yes",0.999705,1,1.47669196128845,"k",0,1,5
"527",82,1,526,9.55800029935642,5.26,"bridges19.jpg","bridges","X",0,"yes",0.999705,1,1.47669196128845,"k",0,1,5
"528",82,1,527,8.38751683879661,5.27,"bridges19.jpg","bridges","X",0,"yes",0.999705,1,1.47669196128845,"k",0,1,5
"529",82,1,528,7.21703337823681,5.28,"bridges19.jpg","bridges","X",0,"yes",0.999705,1,1.47669196128845,"k",0,1,5
"530",82,1,529,6.04654991767701,5.29,"bridges19.jpg","bridges","X",0,"yes",0.999705,1,1.47669196128845,"k",0,1,5
"531",82,1,530,4.8760664571173,5.3,"bridges19.jpg","bridges","X",0,"yes",0.999705,1,1.47669196128845,"k",0,1,5
"532",82,1,531,3.7055829965575,5.31,"bridges19.jpg","bridges","X",0,"yes",0.999705,1,1.47669196128845,"k",0,1,5
"533",82,1,532,2.53509953599769,5.32,"bridges19.jpg","bridges","X",0,"yes",0.999705,1,1.47669196128845,"k",0,1,5
"534",82,1,533,1.36461607543788,5.33,"bridges19.jpg","bridges","X",0,"yes",0.999705,1,1.47669196128845,"k",0,1,5
"535",82,1,534,0.194132614878072,5.34,"bridges19.jpg","bridges","X",0,"yes",0.999705,1,1.47669196128845,"k",0,1,5
"536",82,1,535,-0.976350845681736,5.35,"bridges19.jpg","bridges","X",0,"yes",0.999705,1,1.47669196128845,"k",0,1,5
"537",82,1,536,-2.14683430624154,5.36,"bridges19.jpg","bridges","X",0,"yes",0.999705,1,1.47669196128845,"k",0,1,5
"538",82,1,537,-3.31731776680135,5.37,"bridges19.jpg","bridges","X",0,"yes",0.999705,1,1.47669196128845,"k",0,1,5
"539",82,1,538,-4.48780122736116,5.38,"bridges19.jpg","bridges","X",0,"yes",0.999705,1,1.47669196128845,"k",0,1,5
"540",82,1,539,-5.65828468792093,5.39,"bridges19.jpg","bridges","X",0,"yes",0.999705,1,1.47669196128845,"k",0,1,5
"541",82,1,540,-6.82876814848066,5.4,"bridges19.jpg","bridges","X",0,"yes",0.999705,1,1.47669196128845,"k",0,1,5
"542",82,1,541,-7.99925160904047,5.41,"bridges19.jpg","bridges","X",0,"yes",0.999705,1,1.47669196128845,"k",0,1,5
"543",82,1,542,-9.16973506960028,5.42,"bridges19.jpg","bridges","X",0,"yes",0.999705,1,1.47669196128845,"k",0,1,5
"544",82,1,543,-10.3402185301601,5.43,"bridges19.jpg","bridges","X",0,"yes",0.999705,1,1.47669196128845,"k",0,1,5
"545",82,1,544,-13.4404729830863,5.44,"bridges19.jpg","bridges","X",0,"yes",0.999705,1,1.47669196128845,"k",0,1,5
"546",82,1,545,-18.2862745098039,5.45,"bridges19.jpg","bridges","X",0,"yes",0.999705,1,1.47669196128845,"k",0,1,5
"547",82,1,546,-29.2862745098039,5.46,"bridges19.jpg","bridges","X",0,"yes",0.999705,1,1.47669196128845,"k",0,1,5
"548",82,1,547,-4.78627450980387,5.47,"bridges19.jpg","bridges","X",0,"yes",0.999705,1,1.47669196128845,"k",0,1,5
"549",82,1,548,-6.68627450980387,5.48,"bridges19.jpg","bridges","X",0,"yes",0.999705,1,1.47669196128845,"k",0,1,5
"550",82,1,549,10.6137254901961,5.49,"bridges19.jpg","bridges","X",0,"yes",0.999705,1,1.47669196128845,"k",0,1,5
"551",82,1,550,11.3137254901961,5.5,"bridges19.jpg","bridges","X",0,"yes",0.999705,1,1.47669196128845,"k",0,1,5
"552",82,1,551,-0.586274509803867,5.51,"bridges19.jpg","bridges","X",0,"yes",0.999705,1,1.47669196128845,"k",0,1,5
"553",82,1,552,-0.886274509803865,5.52,"bridges19.jpg","bridges","X",0,"yes",0.999705,1,1.47669196128845,"k",0,1,5
"554",82,1,553,-10.8862745098039,5.53,"bridges19.jpg","bridges","X",0,"yes",0.999705,1,1.47669196128845,"k",0,1,5
"555",82,1,554,-9.98627450980387,5.54,"bridges19.jpg","bridges","X",0,"yes",0.999705,1,1.47669196128845,"k",0,1,5
"556",82,1,555,12.8137254901961,5.55,"bridges19.jpg","bridges","X",0,"yes",0.999705,1,1.47669196128845,"k",0,1,5
"557",82,1,556,9.11372549019613,5.56,"bridges19.jpg","bridges","X",0,"yes",0.999705,1,1.47669196128845,"k",0,1,5
"558",82,1,557,10.1137254901961,5.57,"bridges19.jpg","bridges","X",0,"yes",0.999705,1,1.47669196128845,"k",0,1,5
"559",82,1,558,9.41372549019613,5.58,"bridges19.jpg","bridges","X",0,"yes",0.999705,1,1.47669196128845,"k",0,1,5
"560",82,1,559,24.7137254901961,5.59,"bridges19.jpg","bridges","X",0,"yes",0.999705,1,1.47669196128845,"k",0,1,5
"561",82,1,560,14.2137254901961,5.6,"bridges19.jpg","bridges","X",0,"yes",0.999705,1,1.47669196128845,"k",0,1,5
"562",82,1,561,1.81372549019613,5.61,"bridges19.jpg","bridges","X",0,"yes",0.999705,1,1.47669196128845,"k",0,1,5
"563",82,1,562,-5.18627450980387,5.62,"bridges19.jpg","bridges","X",0,"yes",0.999705,1,1.47669196128845,"k",0,1,5
"564",82,1,563,-1.88627450980387,5.63,"bridges19.jpg","bridges","X",0,"yes",0.999705,1,1.47669196128845,"k",0,1,5
"565",82,1,564,-8.18627450980387,5.64,"bridges19.jpg","bridges","X",0,"yes",0.999705,1,1.47669196128845,"k",0,1,5
"566",82,1,565,-7.38627450980387,5.65,"bridges19.jpg","bridges","X",0,"yes",0.999705,1,1.47669196128845,"k",0,1,5
"567",82,1,566,-11.4862745098039,5.66,"bridges19.jpg","bridges","X",0,"yes",0.999705,1,1.47669196128845,"k",0,1,5
"568",82,1,567,-36.1862745098039,5.67,"bridges19.jpg","bridges","X",0,"yes",0.999705,1,1.47669196128845,"k",0,1,5
"569",82,1,568,-42.3862745098039,5.68,"bridges19.jpg","bridges","X",0,"yes",0.999705,1,1.47669196128845,"k",0,1,5
"570",82,1,569,-41.0862745098039,5.69,"bridges19.jpg","bridges","X",0,"yes",0.999705,1,1.47669196128845,"k",0,1,5
"571",82,1,570,-59.3862745098039,5.7,"bridges19.jpg","bridges","X",0,"yes",0.999705,1,1.47669196128845,"k",0,1,5
"572",82,1,571,-67.9862745098039,5.71,"bridges19.jpg","bridges","X",0,"yes",0.999705,1,1.47669196128845,"k",0,1,5
"573",82,1,572,-59.4862745098039,5.72,"bridges19.jpg","bridges","X",0,"yes",0.999705,1,1.47669196128845,"k",0,1,5
"574",82,1,573,-65.1862745098039,5.73,"bridges19.jpg","bridges","X",0,"yes",0.999705,1,1.47669196128845,"k",0,1,5
"575",82,1,574,-60.7862745098039,5.74,"bridges19.jpg","bridges","X",0,"yes",0.999705,1,1.47669196128845,"k",0,1,5
"576",82,1,575,-91.6395679229775,5.75,"bridges19.jpg","bridges","X",0,"yes",0.999705,1,1.47669196128845,"k",0,1,5
"577",82,1,576,-86.2925619349536,5.76,"bridges19.jpg","bridges","X",0,"yes",0.999705,1,1.47669196128845,"k",0,1,5
"578",82,1,577,-84.8254960666901,5.77,"bridges19.jpg","bridges","X",0,"yes",0.999705,1,1.47669196128845,"k",0,1,5
"579",82,1,578,-83.3584301984266,5.78,"bridges19.jpg","bridges","X",0,"yes",0.999705,1,1.47669196128845,"k",0,1,5
"580",82,1,579,-81.8913643301632,5.79,"bridges19.jpg","bridges","X",0,"yes",0.999705,1,1.47669196128845,"k",0,1,5
"581",82,1,580,-80.4242984618997,5.8,"bridges19.jpg","bridges","X",0,"yes",0.999705,1,1.47669196128845,"k",0,1,5
"582",82,1,581,-78.9572325936362,5.81,"bridges19.jpg","bridges","X",0,"yes",0.999705,1,1.47669196128845,"k",0,1,5
"583",82,1,582,-77.4901667253727,5.82,"bridges19.jpg","bridges","X",0,"yes",0.999705,1,1.47669196128845,"k",0,1,5
"584",82,1,583,-76.0231008571093,5.83,"bridges19.jpg","bridges","X",0,"yes",0.999705,1,1.47669196128845,"k",0,1,5
"585",82,1,584,-74.5560349888458,5.84,"bridges19.jpg","bridges","X",0,"yes",0.999705,1,1.47669196128845,"k",0,1,5
"586",82,1,585,-73.0889691205823,5.85,"bridges19.jpg","bridges","X",0,"yes",0.999705,1,1.47669196128845,"k",0,1,5
"587",82,1,586,-71.6219032523188,5.86,"bridges19.jpg","bridges","X",0,"yes",0.999705,1,1.47669196128845,"k",0,1,5
"588",82,1,587,-70.448250557708,5.87,"bridges19.jpg","bridges","X",0,"yes",0.999705,1,1.47669196128845,"k",0,1,5
"589",82,2,0,-3.00748502994015,0,"lakes48.jpg","lakes","B",0,"yes",1.000023,1,0.837541580200195,"k",0,1,5
"590",82,2,1,-1.54041916167669,0.01,"lakes48.jpg","lakes","B",0,"yes",1.000023,1,0.837541580200195,"k",0,1,5
"591",82,2,2,-0.07335329341322,0.02,"lakes48.jpg","lakes","B",0,"yes",1.000023,1,0.837541580200195,"k",0,1,5
"592",82,2,3,1.39371257485027,0.03,"lakes48.jpg","lakes","B",0,"yes",1.000023,1,0.837541580200195,"k",0,1,5
"593",82,2,4,2.86077844311374,0.04,"lakes48.jpg","lakes","B",0,"yes",1.000023,1,0.837541580200195,"k",0,1,5
"594",82,2,5,4.32784431137721,0.05,"lakes48.jpg","lakes","B",0,"yes",1.000023,1,0.837541580200195,"k",0,1,5
"595",82,2,6,5.79491017964068,0.06,"lakes48.jpg","lakes","B",0,"yes",1.000023,1,0.837541580200195,"k",0,1,5
"596",82,2,7,7.26197604790416,0.07,"lakes48.jpg","lakes","B",0,"yes",1.000023,1,0.837541580200195,"k",0,1,5
"597",82,2,8,8.72904191616763,0.08,"lakes48.jpg","lakes","B",0,"yes",1.000023,1,0.837541580200195,"k",0,1,5
"598",82,2,9,10.1961077844311,0.09,"lakes48.jpg","lakes","B",0,"yes",1.000023,1,0.837541580200195,"k",0,1,5
"599",82,2,10,11.6631736526946,0.1,"lakes48.jpg","lakes","B",0,"yes",1.000023,1,0.837541580200195,"k",0,1,5
"600",82,2,11,13.130239520958,0.11,"lakes48.jpg","lakes","B",0,"yes",1.000023,1,0.837541580200195,"k",0,1,5
"601",82,2,12,14.5973053892215,0.12,"lakes48.jpg","lakes","B",0,"yes",1.000023,1,0.837541580200195,"k",0,1,5
"602",82,2,13,16.064371257485,0.13,"lakes48.jpg","lakes","B",0,"yes",1.000023,1,0.837541580200195,"k",0,1,5
"603",82,2,14,17.5314371257485,0.14,"lakes48.jpg","lakes","B",0,"yes",1.000023,1,0.837541580200195,"k",0,1,5
"604",82,2,15,28.4104790419161,0.15,"lakes48.jpg","lakes","B",0,"yes",1.000023,1,0.837541580200195,"k",0,1,5
"605",82,2,16,13.0185628742515,0.16,"lakes48.jpg","lakes","B",0,"yes",1.000023,1,0.837541580200195,"k",0,1,5
"606",82,2,17,30.9185628742515,0.17,"lakes48.jpg","lakes","B",0,"yes",1.000023,1,0.837541580200195,"k",0,1,5
"607",82,2,18,34.8185628742515,0.18,"lakes48.jpg","lakes","B",0,"yes",1.000023,1,0.837541580200195,"k",0,1,5
"608",82,2,19,30.0185628742515,0.19,"lakes48.jpg","lakes","B",0,"yes",1.000023,1,0.837541580200195,"k",0,1,5
"609",82,2,20,52.6185628742515,0.2,"lakes48.jpg","lakes","B",0,"yes",1.000023,1,0.837541580200195,"k",0,1,5
"610",82,2,21,47.9185628742515,0.21,"lakes48.jpg","lakes","B",0,"yes",1.000023,1,0.837541580200195,"k",0,1,5
"611",82,2,22,54.5185628742515,0.22,"lakes48.jpg","lakes","B",0,"yes",1.000023,1,0.837541580200195,"k",0,1,5
"612",82,2,23,39.0185628742515,0.23,"lakes48.jpg","lakes","B",0,"yes",1.000023,1,0.837541580200195,"k",0,1,5
"613",82,2,24,41.0185628742515,0.24,"lakes48.jpg","lakes","B",0,"yes",1.000023,1,0.837541580200195,"k",0,1,5
"614",82,2,25,56.7185628742515,0.25,"lakes48.jpg","lakes","B",0,"yes",1.000023,1,0.837541580200195,"k",0,1,5
"615",82,2,26,55.8185628742515,0.26,"lakes48.jpg","lakes","B",0,"yes",1.000023,1,0.837541580200195,"k",0,1,5
"616",82,2,27,58.2185628742515,0.27,"lakes48.jpg","lakes","B",0,"yes",1.000023,1,0.837541580200195,"k",0,1,5
"617",82,2,28,48.4003810560696,0.28,"lakes48.jpg","lakes","B",0,"yes",1.000023,1,0.837541580200195,"k",0,1,5
"618",82,2,29,31.6630073186959,0.29,"lakes48.jpg","lakes","B",0,"yes",1.000023,1,0.837541580200195,"k",0,1,5
"619",82,2,30,52.9185628742515,0.3,"lakes48.jpg","lakes","B",0,"yes",1.000023,1,0.837541580200195,"k",0,1,5
"620",82,2,31,36.4185628742515,0.31,"lakes48.jpg","lakes","B",0,"yes",1.000023,1,0.837541580200195,"k",0,1,5
"621",82,2,32,57.5185628742515,0.32,"lakes48.jpg","lakes","B",0,"yes",1.000023,1,0.837541580200195,"k",0,1,5
"622",82,2,33,46.1185628742515,0.33,"lakes48.jpg","lakes","B",0,"yes",1.000023,1,0.837541580200195,"k",0,1,5
"623",82,2,34,40.7185628742515,0.34,"lakes48.jpg","lakes","B",0,"yes",1.000023,1,0.837541580200195,"k",0,1,5
"624",82,2,35,43.8185628742515,0.35,"lakes48.jpg","lakes","B",0,"yes",1.000023,1,0.837541580200195,"k",0,1,5
"625",82,2,36,61.0185628742515,0.36,"lakes48.jpg","lakes","B",0,"yes",1.000023,1,0.837541580200195,"k",0,1,5
"626",82,2,37,48.7185628742515,0.37,"lakes48.jpg","lakes","B",0,"yes",1.000023,1,0.837541580200195,"k",0,1,5
"627",82,2,38,31.1185628742515,0.38,"lakes48.jpg","lakes","B",0,"yes",1.000023,1,0.837541580200195,"k",0,1,5
"628",82,2,39,15.3185628742515,0.39,"lakes48.jpg","lakes","B",0,"yes",1.000023,1,0.837541580200195,"k",0,1,5
"629",82,2,40,12.4185628742515,0.4,"lakes48.jpg","lakes","B",0,"yes",1.000023,1,0.837541580200195,"k",0,1,5
"630",82,2,41,21.5185628742515,0.41,"lakes48.jpg","lakes","B",0,"yes",1.000023,1,0.837541580200195,"k",0,1,5
"631",82,2,42,-1.28143712574854,0.42,"lakes48.jpg","lakes","B",0,"yes",1.000023,1,0.837541580200195,"k",0,1,5
"632",82,2,43,14.2185628742515,0.43,"lakes48.jpg","lakes","B",0,"yes",1.000023,1,0.837541580200195,"k",0,1,5
"633",82,2,44,16.6185628742515,0.44,"lakes48.jpg","lakes","B",0,"yes",1.000023,1,0.837541580200195,"k",0,1,5
"634",82,2,45,-20.7814371257485,0.45,"lakes48.jpg","lakes","B",0,"yes",1.000023,1,0.837541580200195,"k",0,1,5
"635",82,2,46,-14.5996189439304,0.46,"lakes48.jpg","lakes","B",0,"yes",1.000023,1,0.837541580200195,"k",0,1,5
"636",82,2,47,-24.1147704590819,0.47,"lakes48.jpg","lakes","B",0,"yes",1.000023,1,0.837541580200195,"k",0,1,5
"637",82,2,48,-26.7814371257485,0.48,"lakes48.jpg","lakes","B",0,"yes",1.000023,1,0.837541580200195,"k",0,1,5
"638",82,2,49,-24.3814371257485,0.49,"lakes48.jpg","lakes","B",0,"yes",1.000023,1,0.837541580200195,"k",0,1,5
"639",82,2,50,-40.2814371257485,0.5,"lakes48.jpg","lakes","B",0,"yes",1.000023,1,0.837541580200195,"k",0,1,5
"640",82,2,51,-16.7814371257485,0.51,"lakes48.jpg","lakes","B",0,"yes",1.000023,1,0.837541580200195,"k",0,1,5
"641",82,2,52,-23.6814371257485,0.52,"lakes48.jpg","lakes","B",0,"yes",1.000023,1,0.837541580200195,"k",0,1,5
"642",82,2,53,-43.4814371257485,0.53,"lakes48.jpg","lakes","B",0,"yes",1.000023,1,0.837541580200195,"k",0,1,5
"643",82,2,54,-16.0814371257485,0.54,"lakes48.jpg","lakes","B",0,"yes",1.000023,1,0.837541580200195,"k",0,1,5
"644",82,2,55,-6.98143712574854,0.55,"lakes48.jpg","lakes","B",0,"yes",1.000023,1,0.837541580200195,"k",0,1,5
"645",82,2,56,-13.3268916712031,0.56,"lakes48.jpg","lakes","B",0,"yes",1.000023,1,0.837541580200195,"k",0,1,5
"646",82,2,57,-17.2814371257485,0.57,"lakes48.jpg","lakes","B",0,"yes",1.000023,1,0.837541580200195,"k",0,1,5
"647",82,2,58,-25.2814371257485,0.58,"lakes48.jpg","lakes","B",0,"yes",1.000023,1,0.837541580200195,"k",0,1,5
"648",82,2,59,-23.8925482368596,0.59,"lakes48.jpg","lakes","B",0,"yes",1.000023,1,0.837541580200195,"k",0,1,5
"649",82,2,60,-13.1814371257485,0.6,"lakes48.jpg","lakes","B",0,"yes",1.000023,1,0.837541580200195,"k",0,1,5
"650",82,2,61,-40.2814371257485,0.61,"lakes48.jpg","lakes","B",0,"yes",1.000023,1,0.837541580200195,"k",0,1,5
"651",82,2,62,-9.78143712574854,0.62,"lakes48.jpg","lakes","B",0,"yes",1.000023,1,0.837541580200195,"k",0,1,5
"652",82,2,63,-14.1814371257485,0.63,"lakes48.jpg","lakes","B",0,"yes",1.000023,1,0.837541580200195,"k",0,1,5
"653",82,2,64,-8.78143712574854,0.64,"lakes48.jpg","lakes","B",0,"yes",1.000023,1,0.837541580200195,"k",0,1,5
"654",82,2,65,-20.2814371257485,0.65,"lakes48.jpg","lakes","B",0,"yes",1.000023,1,0.837541580200195,"k",0,1,5
"655",82,2,66,-18.1814371257485,0.66,"lakes48.jpg","lakes","B",0,"yes",1.000023,1,0.837541580200195,"k",0,1,5
"656",82,2,67,-17.5814371257485,0.67,"lakes48.jpg","lakes","B",0,"yes",1.000023,1,0.837541580200195,"k",0,1,5
"657",82,2,68,-23.4814371257485,0.68,"lakes48.jpg","lakes","B",0,"yes",1.000023,1,0.837541580200195,"k",0,1,5
"658",82,2,69,-31.6814371257485,0.69,"lakes48.jpg","lakes","B",0,"yes",1.000023,1,0.837541580200195,"k",0,1,5
"659",82,2,70,-16.1814371257485,0.7,"lakes48.jpg","lakes","B",0,"yes",1.000023,1,0.837541580200195,"k",0,1,5
"660",82,2,71,-9.58143712574854,0.71,"lakes48.jpg","lakes","B",0,"yes",1.000023,1,0.837541580200195,"k",0,1,5
"661",82,2,72,-12.7814371257485,0.72,"lakes48.jpg","lakes","B",0,"yes",1.000023,1,0.837541580200195,"k",0,1,5
"662",82,2,73,-7.98143712574854,0.73,"lakes48.jpg","lakes","B",0,"yes",1.000023,1,0.837541580200195,"k",0,1,5
"663",82,2,74,-4.78143712574854,0.74,"lakes48.jpg","lakes","B",0,"yes",1.000023,1,0.837541580200195,"k",0,1,5
"664",82,2,75,-7.68143712574854,0.75,"lakes48.jpg","lakes","B",0,"yes",1.000023,1,0.837541580200195,"k",0,1,5
"665",82,2,76,1.81856287425146,0.76,"lakes48.jpg","lakes","B",0,"yes",1.000023,1,0.837541580200195,"k",0,1,5
"666",82,2,77,2.01856287425146,0.77,"lakes48.jpg","lakes","B",0,"yes",1.000023,1,0.837541580200195,"k",0,1,5
"667",82,2,78,0.918562874251461,0.78,"lakes48.jpg","lakes","B",0,"yes",1.000023,1,0.837541580200195,"k",0,1,5
"668",82,2,79,-0.981437125748539,0.79,"lakes48.jpg","lakes","B",0,"yes",1.000023,1,0.837541580200195,"k",0,1,5
"669",82,2,80,-3.98143712574854,0.8,"lakes48.jpg","lakes","B",0,"yes",1.000023,1,0.837541580200195,"k",0,1,5
"670",82,2,81,-0.881437125748539,0.81,"lakes48.jpg","lakes","B",0,"yes",1.000023,1,0.837541580200195,"k",0,1,5
"671",82,2,82,-4.78143712574854,0.82,"lakes48.jpg","lakes","B",0,"yes",1.000023,1,0.837541580200195,"k",0,1,5
"672",82,2,83,-25.1814371257485,0.83,"lakes48.jpg","lakes","B",0,"yes",1.000023,1,0.837541580200195,"k",0,1,5
"673",82,2,84,-27.8814371257485,0.84,"lakes48.jpg","lakes","B",0,"yes",1.000023,1,0.837541580200195,"k",0,1,5
"674",82,2,85,-15.5814371257485,0.85,"lakes48.jpg","lakes","B",0,"yes",1.000023,1,0.837541580200195,"k",0,1,5
"675",82,2,86,-11.1814371257485,0.86,"lakes48.jpg","lakes","B",0,"yes",1.000023,1,0.837541580200195,"k",0,1,5
"676",82,2,87,-16.2814371257485,0.87,"lakes48.jpg","lakes","B",0,"yes",1.000023,1,0.837541580200195,"k",0,1,5
"677",82,2,88,-16.8814371257485,0.88,"lakes48.jpg","lakes","B",0,"yes",1.000023,1,0.837541580200195,"k",0,1,5
"678",82,2,89,-17.4814371257485,0.89,"lakes48.jpg","lakes","B",0,"yes",1.000023,1,0.837541580200195,"k",0,1,5
"679",82,2,90,-17.5814371257485,0.9,"lakes48.jpg","lakes","B",0,"yes",1.000023,1,0.837541580200195,"k",0,1,5
"680",82,2,91,-2.18143712574854,0.91,"lakes48.jpg","lakes","B",0,"yes",1.000023,1,0.837541580200195,"k",0,1,5
"681",82,2,92,-5.48143712574854,0.92,"lakes48.jpg","lakes","B",0,"yes",1.000023,1,0.837541580200195,"k",0,1,5
"682",82,2,93,-6.96325530756672,0.93,"lakes48.jpg","lakes","B",0,"yes",1.000023,1,0.837541580200195,"k",0,1,5
"683",82,2,94,-1.78143712574854,0.94,"lakes48.jpg","lakes","B",0,"yes",1.000023,1,0.837541580200195,"k",0,1,5
"684",82,2,95,-4.58143712574854,0.95,"lakes48.jpg","lakes","B",0,"yes",1.000023,1,0.837541580200195,"k",0,1,5
"685",82,2,96,-18.7814371257485,0.96,"lakes48.jpg","lakes","B",0,"yes",1.000023,1,0.837541580200195,"k",0,1,5
"686",82,2,97,-17.4814371257485,0.97,"lakes48.jpg","lakes","B",0,"yes",1.000023,1,0.837541580200195,"k",0,1,5
"687",82,2,98,-19.1814371257485,0.98,"lakes48.jpg","lakes","B",0,"yes",1.000023,1,0.837541580200195,"k",0,1,5
"688",82,2,99,-23.4814371257485,0.99,"lakes48.jpg","lakes","B",0,"yes",1.000023,1,0.837541580200195,"k",0,1,5
"689",82,2,100,-18.0814371257485,1,"lakes48.jpg","lakes","B",0,"yes",1.000023,1,0.837541580200195,"k",0,1,5
"690",82,2,101,-28.0814371257485,1.01,"lakes48.jpg","lakes","B",0,"yes",1.000023,1,0.837541580200195,"k",0,1,5
"691",82,2,102,-32.9814371257485,1.02,"lakes48.jpg","lakes","B",0,"yes",1.000023,1,0.837541580200195,"k",0,1,5
"692",82,2,103,-37.3814371257485,1.03,"lakes48.jpg","lakes","B",0,"yes",1.000023,1,0.837541580200195,"k",0,1,5
"693",82,2,104,-21.2814371257485,1.04,"lakes48.jpg","lakes","B",0,"yes",1.000023,1,0.837541580200195,"k",0,1,5
"694",82,2,105,-19.7814371257485,1.05,"lakes48.jpg","lakes","B",0,"yes",1.000023,1,0.837541580200195,"k",0,1,5
"695",82,2,106,-16.0814371257485,1.06,"lakes48.jpg","lakes","B",0,"yes",1.000023,1,0.837541580200195,"k",0,1,5
"696",82,2,107,-18.9814371257485,1.07,"lakes48.jpg","lakes","B",0,"yes",1.000023,1,0.837541580200195,"k",0,1,5
"697",82,2,108,-15.0814371257485,1.08,"lakes48.jpg","lakes","B",0,"yes",1.000023,1,0.837541580200195,"k",0,1,5
"698",82,2,109,-31.1814371257485,1.09,"lakes48.jpg","lakes","B",0,"yes",1.000023,1,0.837541580200195,"k",0,1,5
"699",82,2,110,-6.18143712574854,1.1,"lakes48.jpg","lakes","B",0,"yes",1.000023,1,0.837541580200195,"k",0,1,5
"700",82,2,111,-8.68143712574854,1.11,"lakes48.jpg","lakes","B",0,"yes",1.000023,1,0.837541580200195,"k",0,1,5
"701",82,2,112,-20.8723462166576,1.12,"lakes48.jpg","lakes","B",0,"yes",1.000023,1,0.837541580200195,"k",0,1,5
"702",82,2,113,-7.58143712574854,1.13,"lakes48.jpg","lakes","B",0,"yes",1.000023,1,0.837541580200195,"k",0,1,5
"703",82,2,114,-9.18143712574854,1.14,"lakes48.jpg","lakes","B",0,"yes",1.000023,1,0.837541580200195,"k",0,1,5
"704",82,2,115,-18.7814371257485,1.15,"lakes48.jpg","lakes","B",0,"yes",1.000023,1,0.837541580200195,"k",0,1,5
"705",82,2,116,-12.2814371257485,1.16,"lakes48.jpg","lakes","B",0,"yes",1.000023,1,0.837541580200195,"k",0,1,5
"706",82,2,117,-8.68143712574854,1.17,"lakes48.jpg","lakes","B",0,"yes",1.000023,1,0.837541580200195,"k",0,1,5
"707",82,2,118,-11.3814371257485,1.18,"lakes48.jpg","lakes","B",0,"yes",1.000023,1,0.837541580200195,"k",0,1,5
"708",82,2,119,-24.3369926813041,1.19,"lakes48.jpg","lakes","B",0,"yes",1.000023,1,0.837541580200195,"k",0,1,5
"709",82,2,120,-11.1814371257485,1.2,"lakes48.jpg","lakes","B",0,"yes",1.000023,1,0.837541580200195,"k",0,1,5
"710",82,2,121,-17.6814371257485,1.21,"lakes48.jpg","lakes","B",0,"yes",1.000023,1,0.837541580200195,"k",0,1,5
"711",82,2,122,-17.0581291561851,1.22,"lakes48.jpg","lakes","B",0,"yes",1.000023,1,0.837541580200195,"k",0,1,5
"712",82,2,123,-27.451240890266,1.23,"lakes48.jpg","lakes","B",0,"yes",1.000023,1,0.837541580200195,"k",0,1,5
"713",82,2,124,-27.0627747308747,1.24,"lakes48.jpg","lakes","B",0,"yes",1.000023,1,0.837541580200195,"k",0,1,5
"714",82,2,125,-26.6743085714834,1.25,"lakes48.jpg","lakes","B",0,"yes",1.000023,1,0.837541580200195,"k",0,1,5
"715",82,2,126,-26.2858424120922,1.26,"lakes48.jpg","lakes","B",0,"yes",1.000023,1,0.837541580200195,"k",0,1,5
"716",82,2,127,-25.8973762527009,1.27,"lakes48.jpg","lakes","B",0,"yes",1.000023,1,0.837541580200195,"k",0,1,5
"717",82,2,128,-25.5089100933096,1.28,"lakes48.jpg","lakes","B",0,"yes",1.000023,1,0.837541580200195,"k",0,1,5
"718",82,2,129,-25.1204439339183,1.29,"lakes48.jpg","lakes","B",0,"yes",1.000023,1,0.837541580200195,"k",0,1,5
"719",82,2,130,-24.7319777745271,1.3,"lakes48.jpg","lakes","B",0,"yes",1.000023,1,0.837541580200195,"k",0,1,5
"720",82,2,131,-24.3435116151358,1.31,"lakes48.jpg","lakes","B",0,"yes",1.000023,1,0.837541580200195,"k",0,1,5
"721",82,2,132,-23.9550454557445,1.32,"lakes48.jpg","lakes","B",0,"yes",1.000023,1,0.837541580200195,"k",0,1,5
"722",82,2,133,-23.5665792963533,1.33,"lakes48.jpg","lakes","B",0,"yes",1.000023,1,0.837541580200195,"k",0,1,5
"723",82,2,134,-23.178113136962,1.34,"lakes48.jpg","lakes","B",0,"yes",1.000023,1,0.837541580200195,"k",0,1,5
"724",82,2,135,-22.7896469775707,1.35,"lakes48.jpg","lakes","B",0,"yes",1.000023,1,0.837541580200195,"k",0,1,5
"725",82,2,136,-22.4011808181795,1.36,"lakes48.jpg","lakes","B",0,"yes",1.000023,1,0.837541580200195,"k",0,1,5
"726",82,2,137,-22.0127146587882,1.37,"lakes48.jpg","lakes","B",0,"yes",1.000023,1,0.837541580200195,"k",0,1,5
"727",82,2,138,-21.6242484993969,1.38,"lakes48.jpg","lakes","B",0,"yes",1.000023,1,0.837541580200195,"k",0,1,5
"728",82,2,139,-21.2357823400056,1.39,"lakes48.jpg","lakes","B",0,"yes",1.000023,1,0.837541580200195,"k",0,1,5
"729",82,2,140,-20.8473161806144,1.4,"lakes48.jpg","lakes","B",0,"yes",1.000023,1,0.837541580200195,"k",0,1,5
"730",82,2,141,-20.4588500212231,1.41,"lakes48.jpg","lakes","B",0,"yes",1.000023,1,0.837541580200195,"k",0,1,5
"731",82,2,142,-20.0703838618318,1.42,"lakes48.jpg","lakes","B",0,"yes",1.000023,1,0.837541580200195,"k",0,1,5
"732",82,2,143,-19.6819177024406,1.43,"lakes48.jpg","lakes","B",0,"yes",1.000023,1,0.837541580200195,"k",0,1,5
"733",82,2,144,-19.2934515430493,1.44,"lakes48.jpg","lakes","B",0,"yes",1.000023,1,0.837541580200195,"k",0,1,5
"734",82,2,145,-18.904985383658,1.45,"lakes48.jpg","lakes","B",0,"yes",1.000023,1,0.837541580200195,"k",0,1,5
"735",82,2,146,-18.5165192242668,1.46,"lakes48.jpg","lakes","B",0,"yes",1.000023,1,0.837541580200195,"k",0,1,5
"736",82,2,147,-18.1280530648755,1.47,"lakes48.jpg","lakes","B",0,"yes",1.000023,1,0.837541580200195,"k",0,1,5
"737",82,2,148,-17.7395869054842,1.48,"lakes48.jpg","lakes","B",0,"yes",1.000023,1,0.837541580200195,"k",0,1,5
"738",82,2,149,-17.351120746093,1.49,"lakes48.jpg","lakes","B",0,"yes",1.000023,1,0.837541580200195,"k",0,1,5
"739",82,2,150,-16.9626545867017,1.5,"lakes48.jpg","lakes","B",0,"yes",1.000023,1,0.837541580200195,"k",0,1,5
"740",82,2,151,-16.5741884273104,1.51,"lakes48.jpg","lakes","B",0,"yes",1.000023,1,0.837541580200195,"k",0,1,5
"741",82,2,152,-16.1857222679191,1.52,"lakes48.jpg","lakes","B",0,"yes",1.000023,1,0.837541580200195,"k",0,1,5
"742",82,2,153,-15.7972561085279,1.53,"lakes48.jpg","lakes","B",0,"yes",1.000023,1,0.837541580200195,"k",0,1,5
"743",82,2,154,-15.4087899491366,1.54,"lakes48.jpg","lakes","B",0,"yes",1.000023,1,0.837541580200195,"k",0,1,5
"744",82,2,155,-15.0203237897453,1.55,"lakes48.jpg","lakes","B",0,"yes",1.000023,1,0.837541580200195,"k",0,1,5
"745",82,2,156,-14.6318576303541,1.56,"lakes48.jpg","lakes","B",0,"yes",1.000023,1,0.837541580200195,"k",0,1,5
"746",82,2,157,-14.2433914709628,1.57,"lakes48.jpg","lakes","B",0,"yes",1.000023,1,0.837541580200195,"k",0,1,5
"747",82,2,158,-13.8549253115715,1.58,"lakes48.jpg","lakes","B",0,"yes",1.000023,1,0.837541580200195,"k",0,1,5
"748",82,2,159,-13.4664591521803,1.59,"lakes48.jpg","lakes","B",0,"yes",1.000023,1,0.837541580200195,"k",0,1,5
"749",82,2,160,-13.077992992789,1.6,"lakes48.jpg","lakes","B",0,"yes",1.000023,1,0.837541580200195,"k",0,1,5
"750",82,2,161,-12.6895268333977,1.61,"lakes48.jpg","lakes","B",0,"yes",1.000023,1,0.837541580200195,"k",0,1,5
"751",82,2,162,-12.3010606740065,1.62,"lakes48.jpg","lakes","B",0,"yes",1.000023,1,0.837541580200195,"k",0,1,5
"752",82,2,163,-11.9125945146152,1.63,"lakes48.jpg","lakes","B",0,"yes",1.000023,1,0.837541580200195,"k",0,1,5
"753",82,2,164,-11.5241283552239,1.64,"lakes48.jpg","lakes","B",0,"yes",1.000023,1,0.837541580200195,"k",0,1,5
"754",82,2,165,-11.1356621958326,1.65,"lakes48.jpg","lakes","B",0,"yes",1.000023,1,0.837541580200195,"k",0,1,5
"755",82,2,166,-10.7471960364414,1.66,"lakes48.jpg","lakes","B",0,"yes",1.000023,1,0.837541580200195,"k",0,1,5
"756",82,2,167,-10.3587298770501,1.67,"lakes48.jpg","lakes","B",0,"yes",1.000023,1,0.837541580200195,"k",0,1,5
"757",82,2,168,-9.97026371765884,1.68,"lakes48.jpg","lakes","B",0,"yes",1.000023,1,0.837541580200195,"k",0,1,5
"758",82,2,169,-9.58179755826756,1.69,"lakes48.jpg","lakes","B",0,"yes",1.000023,1,0.837541580200195,"k",0,1,5
"759",82,2,170,-9.1933313988763,1.7,"lakes48.jpg","lakes","B",0,"yes",1.000023,1,0.837541580200195,"k",0,1,5
"760",82,2,171,-8.80486523948503,1.71,"lakes48.jpg","lakes","B",0,"yes",1.000023,1,0.837541580200195,"k",0,1,5
"761",82,2,172,-8.41639908009375,1.72,"lakes48.jpg","lakes","B",0,"yes",1.000023,1,0.837541580200195,"k",0,1,5
"762",82,2,173,-8.02793292070248,1.73,"lakes48.jpg","lakes","B",0,"yes",1.000023,1,0.837541580200195,"k",0,1,5
"763",82,2,174,-7.63946676131121,1.74,"lakes48.jpg","lakes","B",0,"yes",1.000023,1,0.837541580200195,"k",0,1,5
"764",82,2,175,-7.25100060191994,1.75,"lakes48.jpg","lakes","B",0,"yes",1.000023,1,0.837541580200195,"k",0,1,5
"765",82,2,176,-6.86253444252867,1.76,"lakes48.jpg","lakes","B",0,"yes",1.000023,1,0.837541580200195,"k",0,1,5
"766",82,2,177,-6.47406828313741,1.77,"lakes48.jpg","lakes","B",0,"yes",1.000023,1,0.837541580200195,"k",0,1,5
"767",82,2,178,-6.08560212374614,1.78,"lakes48.jpg","lakes","B",0,"yes",1.000023,1,0.837541580200195,"k",0,1,5
"768",82,2,179,-5.69713596435487,1.79,"lakes48.jpg","lakes","B",0,"yes",1.000023,1,0.837541580200195,"k",0,1,5
"769",82,2,180,-5.3086698049636,1.8,"lakes48.jpg","lakes","B",0,"yes",1.000023,1,0.837541580200195,"k",0,1,5
"770",82,2,181,-4.92020364557233,1.81,"lakes48.jpg","lakes","B",0,"yes",1.000023,1,0.837541580200195,"k",0,1,5
"771",82,2,182,-4.53173748618106,1.82,"lakes48.jpg","lakes","B",0,"yes",1.000023,1,0.837541580200195,"k",0,1,5
"772",82,2,183,-4.1432713267898,1.83,"lakes48.jpg","lakes","B",0,"yes",1.000023,1,0.837541580200195,"k",0,1,5
"773",82,2,184,-3.75480516739851,1.84,"lakes48.jpg","lakes","B",0,"yes",1.000023,1,0.837541580200195,"k",0,1,5
"774",82,2,185,-3.36633900800725,1.85,"lakes48.jpg","lakes","B",0,"yes",1.000023,1,0.837541580200195,"k",0,1,5
"775",82,2,186,-2.97787284861597,1.86,"lakes48.jpg","lakes","B",0,"yes",1.000023,1,0.837541580200195,"k",0,1,5
"776",82,2,187,-2.56998338125515,1.87,"lakes48.jpg","lakes","B",0,"yes",1.000023,1,0.837541580200195,"k",0,1,5
"777",82,2,188,-2.18151722186388,1.88,"lakes48.jpg","lakes","B",0,"yes",1.000023,1,0.837541580200195,"k",0,1,5
"778",82,2,189,-1.81247437044218,1.89,"lakes48.jpg","lakes","B",0,"yes",1.000023,1,0.837541580200195,"k",0,1,5
"779",82,2,190,-1.4240082110509,1.9,"lakes48.jpg","lakes","B",0,"yes",1.000023,1,0.837541580200195,"k",0,1,5
"780",82,2,191,-1.03554205165964,1.91,"lakes48.jpg","lakes","B",0,"yes",1.000023,1,0.837541580200195,"k",0,1,5
"781",82,2,192,-0.647075892268356,1.92,"lakes48.jpg","lakes","B",0,"yes",1.000023,1,0.837541580200195,"k",0,1,5
"782",82,2,193,-0.258609732877096,1.93,"lakes48.jpg","lakes","B",0,"yes",1.000023,1,0.837541580200195,"k",0,1,5
"783",82,2,194,0.129856426514186,1.94,"lakes48.jpg","lakes","B",0,"yes",1.000023,1,0.837541580200195,"k",0,1,5
"784",82,2,195,0.518322585905446,1.95,"lakes48.jpg","lakes","B",0,"yes",1.000023,1,0.837541580200195,"k",0,1,5
"785",82,2,196,0.906788745296717,1.96,"lakes48.jpg","lakes","B",0,"yes",1.000023,1,0.837541580200195,"k",0,1,5
"786",82,2,197,1.29525490468799,1.97,"lakes48.jpg","lakes","B",0,"yes",1.000023,1,0.837541580200195,"k",0,1,5
"787",82,2,198,1.68372106407926,1.98,"lakes48.jpg","lakes","B",0,"yes",1.000023,1,0.837541580200195,"k",0,1,5
"788",82,2,199,2.07218722347052,1.99,"lakes48.jpg","lakes","B",0,"yes",1.000023,1,0.837541580200195,"k",0,1,5
"789",82,2,200,2.48007669083135,2,"lakes48.jpg","lakes","B",0,"yes",1.000023,1,0.837541580200195,"k",0,1,5
"790",82,2,201,2.86854285022263,2.01,"lakes48.jpg","lakes","B",0,"yes",1.000023,1,0.837541580200195,"k",0,1,5
"791",82,2,202,3.25700900961389,2.02,"lakes48.jpg","lakes","B",0,"yes",1.000023,1,0.837541580200195,"k",0,1,5
"792",82,2,203,3.64547516900517,2.03,"lakes48.jpg","lakes","B",0,"yes",1.000023,1,0.837541580200195,"k",0,1,5
"793",82,2,204,4.03394132839644,2.04,"lakes48.jpg","lakes","B",0,"yes",1.000023,1,0.837541580200195,"k",0,1,5
"794",82,2,205,4.42240748778771,2.05,"lakes48.jpg","lakes","B",0,"yes",1.000023,1,0.837541580200195,"k",0,1,5
"795",82,2,206,4.81087364717898,2.06,"lakes48.jpg","lakes","B",0,"yes",1.000023,1,0.837541580200195,"k",0,1,5
"796",82,2,207,5.19933980657024,2.07,"lakes48.jpg","lakes","B",0,"yes",1.000023,1,0.837541580200195,"k",0,1,5
"797",82,2,208,5.58780596596151,2.08,"lakes48.jpg","lakes","B",0,"yes",1.000023,1,0.837541580200195,"k",0,1,5
"798",82,2,209,5.97627212535278,2.09,"lakes48.jpg","lakes","B",0,"yes",1.000023,1,0.837541580200195,"k",0,1,5
"799",82,2,210,6.36473828474405,2.1,"lakes48.jpg","lakes","B",0,"yes",1.000023,1,0.837541580200195,"k",0,1,5
"800",82,2,211,6.75320444413532,2.11,"lakes48.jpg","lakes","B",0,"yes",1.000023,1,0.837541580200195,"k",0,1,5
"801",82,2,212,7.14167060352658,2.12,"lakes48.jpg","lakes","B",0,"yes",1.000023,1,0.837541580200195,"k",0,1,5
"802",82,2,213,7.53013676291787,2.13,"lakes48.jpg","lakes","B",0,"yes",1.000023,1,0.837541580200195,"k",0,1,5
"803",82,2,214,7.89917961433956,2.14,"lakes48.jpg","lakes","B",0,"yes",1.000023,1,0.837541580200195,"k",0,1,5
"804",82,2,215,8.28764577373084,2.15,"lakes48.jpg","lakes","B",0,"yes",1.000023,1,0.837541580200195,"k",0,1,5
"805",82,2,216,8.6761119331221,2.16,"lakes48.jpg","lakes","B",0,"yes",1.000023,1,0.837541580200195,"k",0,1,5
"806",82,2,217,9.06457809251339,2.17,"lakes48.jpg","lakes","B",0,"yes",1.000023,1,0.837541580200195,"k",0,1,5
"807",82,2,218,9.45304425190465,2.18,"lakes48.jpg","lakes","B",0,"yes",1.000023,1,0.837541580200195,"k",0,1,5
"808",82,2,219,9.84151041129592,2.19,"lakes48.jpg","lakes","B",0,"yes",1.000023,1,0.837541580200195,"k",0,1,5
"809",82,2,220,10.2299765706872,2.2,"lakes48.jpg","lakes","B",0,"yes",1.000023,1,0.837541580200195,"k",0,1,5
"810",82,2,221,10.6184427300785,2.21,"lakes48.jpg","lakes","B",0,"yes",1.000023,1,0.837541580200195,"k",0,1,5
"811",82,2,222,11.0069088894697,2.22,"lakes48.jpg","lakes","B",0,"yes",1.000023,1,0.837541580200195,"k",0,1,5
"812",82,2,223,11.395375048861,2.23,"lakes48.jpg","lakes","B",0,"yes",1.000023,1,0.837541580200195,"k",0,1,5
"813",82,2,224,11.7838412082523,2.24,"lakes48.jpg","lakes","B",0,"yes",1.000023,1,0.837541580200195,"k",0,1,5
"814",82,2,225,12.1917306756131,2.25,"lakes48.jpg","lakes","B",0,"yes",1.000023,1,0.837541580200195,"k",0,1,5
"815",82,2,226,12.5801968350044,2.26,"lakes48.jpg","lakes","B",0,"yes",1.000023,1,0.837541580200195,"k",0,1,5
"816",82,2,227,12.9686629943956,2.27,"lakes48.jpg","lakes","B",0,"yes",1.000023,1,0.837541580200195,"k",0,1,5
"817",82,2,228,13.3571291537869,2.28,"lakes48.jpg","lakes","B",0,"yes",1.000023,1,0.837541580200195,"k",0,1,5
"818",82,2,229,13.7455953131782,2.29,"lakes48.jpg","lakes","B",0,"yes",1.000023,1,0.837541580200195,"k",0,1,5
"819",82,2,230,14.1340614725694,2.3,"lakes48.jpg","lakes","B",0,"yes",1.000023,1,0.837541580200195,"k",0,1,5
"820",82,2,231,14.5225276319607,2.31,"lakes48.jpg","lakes","B",0,"yes",1.000023,1,0.837541580200195,"k",0,1,5
"821",82,2,232,14.910993791352,2.32,"lakes48.jpg","lakes","B",0,"yes",1.000023,1,0.837541580200195,"k",0,1,5
"822",82,2,233,15.2994599507433,2.33,"lakes48.jpg","lakes","B",0,"yes",1.000023,1,0.837541580200195,"k",0,1,5
"823",82,2,234,15.6879261101345,2.34,"lakes48.jpg","lakes","B",0,"yes",1.000023,1,0.837541580200195,"k",0,1,5
"824",82,2,235,16.0763922695258,2.35,"lakes48.jpg","lakes","B",0,"yes",1.000023,1,0.837541580200195,"k",0,1,5
"825",82,2,236,16.4648584289171,2.36,"lakes48.jpg","lakes","B",0,"yes",1.000023,1,0.837541580200195,"k",0,1,5
"826",82,2,237,16.8533245883083,2.37,"lakes48.jpg","lakes","B",0,"yes",1.000023,1,0.837541580200195,"k",0,1,5
"827",82,2,238,17.2417907476996,2.38,"lakes48.jpg","lakes","B",0,"yes",1.000023,1,0.837541580200195,"k",0,1,5
"828",82,2,239,17.6108335991213,2.39,"lakes48.jpg","lakes","B",0,"yes",1.000023,1,0.837541580200195,"k",0,1,5
"829",82,2,240,17.9992997585126,2.4,"lakes48.jpg","lakes","B",0,"yes",1.000023,1,0.837541580200195,"k",0,1,5
"830",82,2,241,18.3877659179038,2.41,"lakes48.jpg","lakes","B",0,"yes",1.000023,1,0.837541580200195,"k",0,1,5
"831",82,2,242,18.7762320772951,2.42,"lakes48.jpg","lakes","B",0,"yes",1.000023,1,0.837541580200195,"k",0,1,5
"832",82,2,243,19.1646982366864,2.43,"lakes48.jpg","lakes","B",0,"yes",1.000023,1,0.837541580200195,"k",0,1,5
"833",82,2,244,19.5531643960776,2.44,"lakes48.jpg","lakes","B",0,"yes",1.000023,1,0.837541580200195,"k",0,1,5
"834",82,2,245,19.9416305554689,2.45,"lakes48.jpg","lakes","B",0,"yes",1.000023,1,0.837541580200195,"k",0,1,5
"835",82,2,246,20.3300967148602,2.46,"lakes48.jpg","lakes","B",0,"yes",1.000023,1,0.837541580200195,"k",0,1,5
"836",82,2,247,20.7185628742515,2.47,"lakes48.jpg","lakes","B",0,"yes",1.000023,1,0.837541580200195,"k",0,1,5
"837",82,2,248,21.1070290336427,2.48,"lakes48.jpg","lakes","B",0,"yes",1.000023,1,0.837541580200195,"k",0,1,5
"838",82,2,249,21.495495193034,2.49,"lakes48.jpg","lakes","B",0,"yes",1.000023,1,0.837541580200195,"k",0,1,5
"839",82,2,250,21.9033846603948,2.5,"lakes48.jpg","lakes","B",0,"yes",1.000023,1,0.837541580200195,"k",0,1,5
"840",82,2,251,22.2918508197861,2.51,"lakes48.jpg","lakes","B",0,"yes",1.000023,1,0.837541580200195,"k",0,1,5
"841",82,2,252,22.6803169791774,2.52,"lakes48.jpg","lakes","B",0,"yes",1.000023,1,0.837541580200195,"k",0,1,5
"842",82,2,253,23.0687831385686,2.53,"lakes48.jpg","lakes","B",0,"yes",1.000023,1,0.837541580200195,"k",0,1,5
"843",82,2,254,23.4572492979599,2.54,"lakes48.jpg","lakes","B",0,"yes",1.000023,1,0.837541580200195,"k",0,1,5
"844",82,2,255,23.8457154573512,2.55,"lakes48.jpg","lakes","B",0,"yes",1.000023,1,0.837541580200195,"k",0,1,5
"845",82,2,256,24.2147583087729,2.56,"lakes48.jpg","lakes","B",0,"yes",1.000023,1,0.837541580200195,"k",0,1,5
"846",82,2,257,24.6032244681642,2.57,"lakes48.jpg","lakes","B",0,"yes",1.000023,1,0.837541580200195,"k",0,1,5
"847",82,2,258,24.9916906275554,2.58,"lakes48.jpg","lakes","B",0,"yes",1.000023,1,0.837541580200195,"k",0,1,5
"848",82,2,259,25.3801567869467,2.59,"lakes48.jpg","lakes","B",0,"yes",1.000023,1,0.837541580200195,"k",0,1,5
"849",82,2,260,25.768622946338,2.6,"lakes48.jpg","lakes","B",0,"yes",1.000023,1,0.837541580200195,"k",0,1,5
"850",82,2,261,26.1570891057292,2.61,"lakes48.jpg","lakes","B",0,"yes",1.000023,1,0.837541580200195,"k",0,1,5
"851",82,2,262,26.5455552651205,2.62,"lakes48.jpg","lakes","B",0,"yes",1.000023,1,0.837541580200195,"k",0,1,5
"852",82,2,263,26.9340214245118,2.63,"lakes48.jpg","lakes","B",0,"yes",1.000023,1,0.837541580200195,"k",0,1,5
"853",82,2,264,27.322487583903,2.64,"lakes48.jpg","lakes","B",0,"yes",1.000023,1,0.837541580200195,"k",0,1,5
"854",82,2,265,27.7109537432943,2.65,"lakes48.jpg","lakes","B",0,"yes",1.000023,1,0.837541580200195,"k",0,1,5
"855",82,2,266,28.0994199026856,2.66,"lakes48.jpg","lakes","B",0,"yes",1.000023,1,0.837541580200195,"k",0,1,5
"856",82,2,267,28.4878860620768,2.67,"lakes48.jpg","lakes","B",0,"yes",1.000023,1,0.837541580200195,"k",0,1,5
"857",82,2,268,28.8763522214681,2.68,"lakes48.jpg","lakes","B",0,"yes",1.000023,1,0.837541580200195,"k",0,1,5
"858",82,2,269,29.2648183808594,2.69,"lakes48.jpg","lakes","B",0,"yes",1.000023,1,0.837541580200195,"k",0,1,5
"859",82,2,270,29.6532845402507,2.7,"lakes48.jpg","lakes","B",0,"yes",1.000023,1,0.837541580200195,"k",0,1,5
"860",82,2,271,30.0417506996419,2.71,"lakes48.jpg","lakes","B",0,"yes",1.000023,1,0.837541580200195,"k",0,1,5
"861",82,2,272,30.4302168590332,2.72,"lakes48.jpg","lakes","B",0,"yes",1.000023,1,0.837541580200195,"k",0,1,5
"862",82,2,273,30.8186830184245,2.73,"lakes48.jpg","lakes","B",0,"yes",1.000023,1,0.837541580200195,"k",0,1,5
"863",82,2,274,31.2071491778157,2.74,"lakes48.jpg","lakes","B",0,"yes",1.000023,1,0.837541580200195,"k",0,1,5
"864",82,2,275,31.595615337207,2.75,"lakes48.jpg","lakes","B",0,"yes",1.000023,1,0.837541580200195,"k",0,1,5
"865",82,2,276,31.9840814965983,2.76,"lakes48.jpg","lakes","B",0,"yes",1.000023,1,0.837541580200195,"k",0,1,5
"866",82,2,277,32.3725476559895,2.77,"lakes48.jpg","lakes","B",0,"yes",1.000023,1,0.837541580200195,"k",0,1,5
"867",82,2,278,32.7610138153808,2.78,"lakes48.jpg","lakes","B",0,"yes",1.000023,1,0.837541580200195,"k",0,1,5
"868",82,2,279,33.1494799747721,2.79,"lakes48.jpg","lakes","B",0,"yes",1.000023,1,0.837541580200195,"k",0,1,5
"869",82,2,280,33.5379461341634,2.8,"lakes48.jpg","lakes","B",0,"yes",1.000023,1,0.837541580200195,"k",0,1,5
"870",82,2,281,33.9264122935546,2.81,"lakes48.jpg","lakes","B",0,"yes",1.000023,1,0.837541580200195,"k",0,1,5
"871",82,2,282,34.3148784529459,2.82,"lakes48.jpg","lakes","B",0,"yes",1.000023,1,0.837541580200195,"k",0,1,5
"872",82,2,283,34.7033446123372,2.83,"lakes48.jpg","lakes","B",0,"yes",1.000023,1,0.837541580200195,"k",0,1,5
"873",82,2,284,35.0918107717284,2.84,"lakes48.jpg","lakes","B",0,"yes",1.000023,1,0.837541580200195,"k",0,1,5
"874",82,2,285,35.4802769311197,2.85,"lakes48.jpg","lakes","B",0,"yes",1.000023,1,0.837541580200195,"k",0,1,5
"875",82,2,286,35.868743090511,2.86,"lakes48.jpg","lakes","B",0,"yes",1.000023,1,0.837541580200195,"k",0,1,5
"876",82,2,287,36.2572092499022,2.87,"lakes48.jpg","lakes","B",0,"yes",1.000023,1,0.837541580200195,"k",0,1,5
"877",82,2,288,36.6456754092935,2.88,"lakes48.jpg","lakes","B",0,"yes",1.000023,1,0.837541580200195,"k",0,1,5
"878",82,2,289,37.0341415686848,2.89,"lakes48.jpg","lakes","B",0,"yes",1.000023,1,0.837541580200195,"k",0,1,5
"879",82,2,290,37.422607728076,2.9,"lakes48.jpg","lakes","B",0,"yes",1.000023,1,0.837541580200195,"k",0,1,5
"880",82,2,291,37.8110738874673,2.91,"lakes48.jpg","lakes","B",0,"yes",1.000023,1,0.837541580200195,"k",0,1,5
"881",82,2,292,38.1995400468586,2.92,"lakes48.jpg","lakes","B",0,"yes",1.000023,1,0.837541580200195,"k",0,1,5
"882",82,2,293,38.5880062062499,2.93,"lakes48.jpg","lakes","B",0,"yes",1.000023,1,0.837541580200195,"k",0,1,5
"883",82,2,294,38.9764723656411,2.94,"lakes48.jpg","lakes","B",0,"yes",1.000023,1,0.837541580200195,"k",0,1,5
"884",82,2,295,39.3649385250324,2.95,"lakes48.jpg","lakes","B",0,"yes",1.000023,1,0.837541580200195,"k",0,1,5
"885",82,2,296,39.7534046844237,2.96,"lakes48.jpg","lakes","B",0,"yes",1.000023,1,0.837541580200195,"k",0,1,5
"886",82,2,297,40.1418708438149,2.97,"lakes48.jpg","lakes","B",0,"yes",1.000023,1,0.837541580200195,"k",0,1,5
"887",82,2,298,40.5303370032062,2.98,"lakes48.jpg","lakes","B",0,"yes",1.000023,1,0.837541580200195,"k",0,1,5
"888",82,2,299,40.9188031625975,2.99,"lakes48.jpg","lakes","B",0,"yes",1.000023,1,0.837541580200195,"k",0,1,5
"889",82,2,300,41.3072693219887,3,"lakes48.jpg","lakes","B",0,"yes",1.000023,1,0.837541580200195,"k",0,1,5
"890",82,2,301,41.69573548138,3.01,"lakes48.jpg","lakes","B",0,"yes",1.000023,1,0.837541580200195,"k",0,1,5
"891",82,2,302,42.0842016407713,3.02,"lakes48.jpg","lakes","B",0,"yes",1.000023,1,0.837541580200195,"k",0,1,5
"892",82,2,303,42.4726678001626,3.03,"lakes48.jpg","lakes","B",0,"yes",1.000023,1,0.837541580200195,"k",0,1,5
"893",82,2,304,42.8611339595538,3.04,"lakes48.jpg","lakes","B",0,"yes",1.000023,1,0.837541580200195,"k",0,1,5
