"","subject","trial","Timebin","ps.adj","time.adj","img","categ","cond","rep","answer","trialdur","acc","rt","resp","group","block","ITI"
"1",48,1,0,6.55490196078431,0,"beaches8.jpg","beaches","X",0,"yes",0.999839,1,1.26914644241333,"j",0,1,3.5
"2",48,1,1,-1.74509803921569,0.01,"beaches8.jpg","beaches","X",0,"yes",0.999839,1,1.26914644241333,"j",0,1,3.5
"3",48,1,2,2.75490196078431,0.02,"beaches8.jpg","beaches","X",0,"yes",0.999839,1,1.26914644241333,"j",0,1,3.5
"4",48,1,3,-0.645098039215692,0.03,"beaches8.jpg","beaches","X",0,"yes",0.999839,1,1.26914644241333,"j",0,1,3.5
"5",48,1,4,-6.94509803921569,0.04,"beaches8.jpg","beaches","X",0,"yes",0.999839,1,1.26914644241333,"j",0,1,3.5
"6",48,1,5,-7.54509803921569,0.05,"beaches8.jpg","beaches","X",0,"yes",0.999839,1,1.26914644241333,"j",0,1,3.5
"7",48,1,6,0.354901960784309,0.06,"beaches8.jpg","beaches","X",0,"yes",0.999839,1,1.26914644241333,"j",0,1,3.5
"8",48,1,7,-13.4450980392157,0.07,"beaches8.jpg","beaches","X",0,"yes",0.999839,1,1.26914644241333,"j",0,1,3.5
"9",48,1,8,-15.2450980392157,0.08,"beaches8.jpg","beaches","X",0,"yes",0.999839,1,1.26914644241333,"j",0,1,3.5
"10",48,1,9,-10.0450980392157,0.09,"beaches8.jpg","beaches","X",0,"yes",0.999839,1,1.26914644241333,"j",0,1,3.5
"11",48,1,10,-4.04509803921569,0.1,"beaches8.jpg","beaches","X",0,"yes",0.999839,1,1.26914644241333,"j",0,1,3.5
"12",48,1,11,1.55490196078431,0.11,"beaches8.jpg","beaches","X",0,"yes",0.999839,1,1.26914644241333,"j",0,1,3.5
"13",48,1,12,-8.84509803921569,0.12,"beaches8.jpg","beaches","X",0,"yes",0.999839,1,1.26914644241333,"j",0,1,3.5
"14",48,1,13,0.0549019607843089,0.13,"beaches8.jpg","beaches","X",0,"yes",0.999839,1,1.26914644241333,"j",0,1,3.5
"15",48,1,14,2.55490196078431,0.14,"beaches8.jpg","beaches","X",0,"yes",0.999839,1,1.26914644241333,"j",0,1,3.5
"16",48,1,15,10.0549019607843,0.15,"beaches8.jpg","beaches","X",0,"yes",0.999839,1,1.26914644241333,"j",0,1,3.5
"17",48,1,16,5.25490196078431,0.16,"beaches8.jpg","beaches","X",0,"yes",0.999839,1,1.26914644241333,"j",0,1,3.5
"18",48,1,17,5.95490196078431,0.17,"beaches8.jpg","beaches","X",0,"yes",0.999839,1,1.26914644241333,"j",0,1,3.5
"19",48,1,18,2.25490196078431,0.18,"beaches8.jpg","beaches","X",0,"yes",0.999839,1,1.26914644241333,"j",0,1,3.5
"20",48,1,19,-1.04509803921569,0.19,"beaches8.jpg","beaches","X",0,"yes",0.999839,1,1.26914644241333,"j",0,1,3.5
"21",48,1,20,9.45490196078431,0.2,"beaches8.jpg","beaches","X",0,"yes",0.999839,1,1.26914644241333,"j",0,1,3.5
"22",48,1,21,17.0549019607843,0.21,"beaches8.jpg","beaches","X",0,"yes",0.999839,1,1.26914644241333,"j",0,1,3.5
"23",48,1,22,14.5549019607843,0.22,"beaches8.jpg","beaches","X",0,"yes",0.999839,1,1.26914644241333,"j",0,1,3.5
"24",48,1,23,4.75490196078431,0.23,"beaches8.jpg","beaches","X",0,"yes",0.999839,1,1.26914644241333,"j",0,1,3.5
"25",48,1,24,9.75490196078431,0.24,"beaches8.jpg","beaches","X",0,"yes",0.999839,1,1.26914644241333,"j",0,1,3.5
"26",48,1,25,15.7549019607843,0.25,"beaches8.jpg","beaches","X",0,"yes",0.999839,1,1.26914644241333,"j",0,1,3.5
"27",48,1,26,7.65490196078431,0.26,"beaches8.jpg","beaches","X",0,"yes",0.999839,1,1.26914644241333,"j",0,1,3.5
"28",48,1,27,7.15490196078431,0.27,"beaches8.jpg","beaches","X",0,"yes",0.999839,1,1.26914644241333,"j",0,1,3.5
"29",48,1,28,-1.10873440285205,0.28,"beaches8.jpg","beaches","X",0,"yes",0.999839,1,1.26914644241333,"j",0,1,3.5
"30",48,1,29,15.3660130718954,0.29,"beaches8.jpg","beaches","X",0,"yes",0.999839,1,1.26914644241333,"j",0,1,3.5
"31",48,1,30,6.75490196078431,0.3,"beaches8.jpg","beaches","X",0,"yes",0.999839,1,1.26914644241333,"j",0,1,3.5
"32",48,1,31,4.25490196078431,0.31,"beaches8.jpg","beaches","X",0,"yes",0.999839,1,1.26914644241333,"j",0,1,3.5
"33",48,1,32,4.05490196078431,0.32,"beaches8.jpg","beaches","X",0,"yes",0.999839,1,1.26914644241333,"j",0,1,3.5
"34",48,1,33,3.65490196078431,0.33,"beaches8.jpg","beaches","X",0,"yes",0.999839,1,1.26914644241333,"j",0,1,3.5
"35",48,1,34,6.55490196078431,0.34,"beaches8.jpg","beaches","X",0,"yes",0.999839,1,1.26914644241333,"j",0,1,3.5
"36",48,1,35,6.85490196078431,0.35,"beaches8.jpg","beaches","X",0,"yes",0.999839,1,1.26914644241333,"j",0,1,3.5
"37",48,1,36,1.95490196078431,0.36,"beaches8.jpg","beaches","X",0,"yes",0.999839,1,1.26914644241333,"j",0,1,3.5
"38",48,1,37,-3.74509803921569,0.37,"beaches8.jpg","beaches","X",0,"yes",0.999839,1,1.26914644241333,"j",0,1,3.5
"39",48,1,38,-13.1450980392157,0.38,"beaches8.jpg","beaches","X",0,"yes",0.999839,1,1.26914644241333,"j",0,1,3.5
"40",48,1,39,-9.14509803921569,0.39,"beaches8.jpg","beaches","X",0,"yes",0.999839,1,1.26914644241333,"j",0,1,3.5
"41",48,1,40,-14.2450980392157,0.4,"beaches8.jpg","beaches","X",0,"yes",0.999839,1,1.26914644241333,"j",0,1,3.5
"42",48,1,41,-27.7450980392157,0.41,"beaches8.jpg","beaches","X",0,"yes",0.999839,1,1.26914644241333,"j",0,1,3.5
"43",48,1,42,-13.5450980392157,0.42,"beaches8.jpg","beaches","X",0,"yes",0.999839,1,1.26914644241333,"j",0,1,3.5
"44",48,1,43,-19.0450980392157,0.43,"beaches8.jpg","beaches","X",0,"yes",0.999839,1,1.26914644241333,"j",0,1,3.5
"45",48,1,44,-26.5450980392157,0.44,"beaches8.jpg","beaches","X",0,"yes",0.999839,1,1.26914644241333,"j",0,1,3.5
"46",48,1,45,-21.3450980392157,0.45,"beaches8.jpg","beaches","X",0,"yes",0.999839,1,1.26914644241333,"j",0,1,3.5
"47",48,1,46,-24.8360071301248,0.46,"beaches8.jpg","beaches","X",0,"yes",0.999839,1,1.26914644241333,"j",0,1,3.5
"48",48,1,47,-35.4117647058824,0.47,"beaches8.jpg","beaches","X",0,"yes",0.999839,1,1.26914644241333,"j",0,1,3.5
"49",48,1,48,-48.4450980392157,0.48,"beaches8.jpg","beaches","X",0,"yes",0.999839,1,1.26914644241333,"j",0,1,3.5
"50",48,1,49,-44.0450980392157,0.49,"beaches8.jpg","beaches","X",0,"yes",0.999839,1,1.26914644241333,"j",0,1,3.5
"51",48,1,50,-36.7450980392157,0.5,"beaches8.jpg","beaches","X",0,"yes",0.999839,1,1.26914644241333,"j",0,1,3.5
"52",48,1,51,-50.6450980392157,0.51,"beaches8.jpg","beaches","X",0,"yes",0.999839,1,1.26914644241333,"j",0,1,3.5
"53",48,1,52,-44.5450980392157,0.52,"beaches8.jpg","beaches","X",0,"yes",0.999839,1,1.26914644241333,"j",0,1,3.5
"54",48,1,53,-46.9450980392157,0.53,"beaches8.jpg","beaches","X",0,"yes",0.999839,1,1.26914644241333,"j",0,1,3.5
"55",48,1,54,-61.2450980392157,0.54,"beaches8.jpg","beaches","X",0,"yes",0.999839,1,1.26914644241333,"j",0,1,3.5
"56",48,1,55,-61.2450980392157,0.55,"beaches8.jpg","beaches","X",0,"yes",0.999839,1,1.26914644241333,"j",0,1,3.5
"57",48,1,56,-61.4723707664884,0.56,"beaches8.jpg","beaches","X",0,"yes",0.999839,1,1.26914644241333,"j",0,1,3.5
"58",48,1,57,-65.4450980392157,0.57,"beaches8.jpg","beaches","X",0,"yes",0.999839,1,1.26914644241333,"j",0,1,3.5
"59",48,1,58,-69.8450980392157,0.58,"beaches8.jpg","beaches","X",0,"yes",0.999839,1,1.26914644241333,"j",0,1,3.5
"60",48,1,59,-70.3006535947712,0.59,"beaches8.jpg","beaches","X",0,"yes",0.999839,1,1.26914644241333,"j",0,1,3.5
"61",48,1,60,-64.4450980392157,0.6,"beaches8.jpg","beaches","X",0,"yes",0.999839,1,1.26914644241333,"j",0,1,3.5
"62",48,1,61,-62.1450980392157,0.61,"beaches8.jpg","beaches","X",0,"yes",0.999839,1,1.26914644241333,"j",0,1,3.5
"63",48,1,62,-63.7450980392157,0.62,"beaches8.jpg","beaches","X",0,"yes",0.999839,1,1.26914644241333,"j",0,1,3.5
"64",48,1,63,-67.5450980392157,0.63,"beaches8.jpg","beaches","X",0,"yes",0.999839,1,1.26914644241333,"j",0,1,3.5
"65",48,1,64,-71.2450980392157,0.64,"beaches8.jpg","beaches","X",0,"yes",0.999839,1,1.26914644241333,"j",0,1,3.5
"66",48,1,65,-64.5450980392157,0.65,"beaches8.jpg","beaches","X",0,"yes",0.999839,1,1.26914644241333,"j",0,1,3.5
"67",48,1,66,-74.9450980392157,0.66,"beaches8.jpg","beaches","X",0,"yes",0.999839,1,1.26914644241333,"j",0,1,3.5
"68",48,1,67,-81.3450980392157,0.67,"beaches8.jpg","beaches","X",0,"yes",0.999839,1,1.26914644241333,"j",0,1,3.5
"69",48,1,68,-80.9450980392157,0.68,"beaches8.jpg","beaches","X",0,"yes",0.999839,1,1.26914644241333,"j",0,1,3.5
"70",48,1,69,-69.4450980392157,0.69,"beaches8.jpg","beaches","X",0,"yes",0.999839,1,1.26914644241333,"j",0,1,3.5
"71",48,1,70,-64.8450980392157,0.7,"beaches8.jpg","beaches","X",0,"yes",0.999839,1,1.26914644241333,"j",0,1,3.5
"72",48,1,71,-63.2450980392157,0.71,"beaches8.jpg","beaches","X",0,"yes",0.999839,1,1.26914644241333,"j",0,1,3.5
"73",48,1,72,-69.7450980392157,0.72,"beaches8.jpg","beaches","X",0,"yes",0.999839,1,1.26914644241333,"j",0,1,3.5
"74",48,1,73,-72.8450980392157,0.73,"beaches8.jpg","beaches","X",0,"yes",0.999839,1,1.26914644241333,"j",0,1,3.5
"75",48,1,74,-69.0450980392157,0.74,"beaches8.jpg","beaches","X",0,"yes",0.999839,1,1.26914644241333,"j",0,1,3.5
"76",48,1,75,-72.8450980392157,0.75,"beaches8.jpg","beaches","X",0,"yes",0.999839,1,1.26914644241333,"j",0,1,3.5
"77",48,1,76,-69.8450980392157,0.76,"beaches8.jpg","beaches","X",0,"yes",0.999839,1,1.26914644241333,"j",0,1,3.5
"78",48,1,77,-77.1450980392157,0.77,"beaches8.jpg","beaches","X",0,"yes",0.999839,1,1.26914644241333,"j",0,1,3.5
"79",48,1,78,-84.2450980392157,0.78,"beaches8.jpg","beaches","X",0,"yes",0.999839,1,1.26914644241333,"j",0,1,3.5
"80",48,1,79,-83.2450980392157,0.79,"beaches8.jpg","beaches","X",0,"yes",0.999839,1,1.26914644241333,"j",0,1,3.5
"81",48,1,80,-72.6450980392157,0.8,"beaches8.jpg","beaches","X",0,"yes",0.999839,1,1.26914644241333,"j",0,1,3.5
"82",48,1,81,-75.2450980392157,0.81,"beaches8.jpg","beaches","X",0,"yes",0.999839,1,1.26914644241333,"j",0,1,3.5
"83",48,1,82,-71.6450980392157,0.82,"beaches8.jpg","beaches","X",0,"yes",0.999839,1,1.26914644241333,"j",0,1,3.5
"84",48,1,83,-78.1450980392157,0.83,"beaches8.jpg","beaches","X",0,"yes",0.999839,1,1.26914644241333,"j",0,1,3.5
"85",48,1,84,-61.0450980392157,0.84,"beaches8.jpg","beaches","X",0,"yes",0.999839,1,1.26914644241333,"j",0,1,3.5
"86",48,1,85,-60.0450980392157,0.85,"beaches8.jpg","beaches","X",0,"yes",0.999839,1,1.26914644241333,"j",0,1,3.5
"87",48,1,86,-59.6450980392157,0.86,"beaches8.jpg","beaches","X",0,"yes",0.999839,1,1.26914644241333,"j",0,1,3.5
"88",48,1,87,-51.2450980392157,0.87,"beaches8.jpg","beaches","X",0,"yes",0.999839,1,1.26914644241333,"j",0,1,3.5
"89",48,1,88,-52.7450980392157,0.88,"beaches8.jpg","beaches","X",0,"yes",0.999839,1,1.26914644241333,"j",0,1,3.5
"90",48,1,89,-62.5450980392157,0.89,"beaches8.jpg","beaches","X",0,"yes",0.999839,1,1.26914644241333,"j",0,1,3.5
"91",48,1,90,-63.7450980392157,0.9,"beaches8.jpg","beaches","X",0,"yes",0.999839,1,1.26914644241333,"j",0,1,3.5
"92",48,1,91,-68.3450980392157,0.91,"beaches8.jpg","beaches","X",0,"yes",0.999839,1,1.26914644241333,"j",0,1,3.5
"93",48,1,92,-48.5450980392157,0.92,"beaches8.jpg","beaches","X",0,"yes",0.999839,1,1.26914644241333,"j",0,1,3.5
"94",48,1,93,-50.1996434937611,0.93,"beaches8.jpg","beaches","X",0,"yes",0.999839,1,1.26914644241333,"j",0,1,3.5
"95",48,1,94,-53.3006535947712,0.94,"beaches8.jpg","beaches","X",0,"yes",0.999839,1,1.26914644241333,"j",0,1,3.5
"96",48,1,95,-48.2450980392157,0.95,"beaches8.jpg","beaches","X",0,"yes",0.999839,1,1.26914644241333,"j",0,1,3.5
"97",48,1,96,-53.4450980392157,0.96,"beaches8.jpg","beaches","X",0,"yes",0.999839,1,1.26914644241333,"j",0,1,3.5
"98",48,1,97,-58.7450980392157,0.97,"beaches8.jpg","beaches","X",0,"yes",0.999839,1,1.26914644241333,"j",0,1,3.5
"99",48,1,98,-31.5450980392157,0.98,"beaches8.jpg","beaches","X",0,"yes",0.999839,1,1.26914644241333,"j",0,1,3.5
"100",48,1,99,-37.3450980392157,0.99,"beaches8.jpg","beaches","X",0,"yes",0.999839,1,1.26914644241333,"j",0,1,3.5
"101",48,1,100,-29.1450980392157,1,"beaches8.jpg","beaches","X",0,"yes",0.999839,1,1.26914644241333,"j",0,1,3.5
"102",48,1,101,-31.5450980392157,1.01,"beaches8.jpg","beaches","X",0,"yes",0.999839,1,1.26914644241333,"j",0,1,3.5
"103",48,1,102,-35.9450980392157,1.02,"beaches8.jpg","beaches","X",0,"yes",0.999839,1,1.26914644241333,"j",0,1,3.5
"104",48,1,103,-25.6450980392157,1.03,"beaches8.jpg","beaches","X",0,"yes",0.999839,1,1.26914644241333,"j",0,1,3.5
"105",48,1,104,-37.1450980392157,1.04,"beaches8.jpg","beaches","X",0,"yes",0.999839,1,1.26914644241333,"j",0,1,3.5
"106",48,1,105,-34.6450980392157,1.05,"beaches8.jpg","beaches","X",0,"yes",0.999839,1,1.26914644241333,"j",0,1,3.5
"107",48,1,106,-21.3450980392157,1.06,"beaches8.jpg","beaches","X",0,"yes",0.999839,1,1.26914644241333,"j",0,1,3.5
"108",48,1,107,-32.7450980392157,1.07,"beaches8.jpg","beaches","X",0,"yes",0.999839,1,1.26914644241333,"j",0,1,3.5
"109",48,1,108,-34.2450980392157,1.08,"beaches8.jpg","beaches","X",0,"yes",0.999839,1,1.26914644241333,"j",0,1,3.5
"110",48,1,109,-34.7450980392157,1.09,"beaches8.jpg","beaches","X",0,"yes",0.999839,1,1.26914644241333,"j",0,1,3.5
"111",48,1,110,-29.9450980392157,1.1,"beaches8.jpg","beaches","X",0,"yes",0.999839,1,1.26914644241333,"j",0,1,3.5
"112",48,1,111,-20.4450980392157,1.11,"beaches8.jpg","beaches","X",0,"yes",0.999839,1,1.26914644241333,"j",0,1,3.5
"113",48,1,112,-26.6541889483066,1.12,"beaches8.jpg","beaches","X",0,"yes",0.999839,1,1.26914644241333,"j",0,1,3.5
"114",48,1,113,-34.4450980392157,1.13,"beaches8.jpg","beaches","X",0,"yes",0.999839,1,1.26914644241333,"j",0,1,3.5
"115",48,1,114,-26.6450980392157,1.14,"beaches8.jpg","beaches","X",0,"yes",0.999839,1,1.26914644241333,"j",0,1,3.5
"116",48,1,115,-17.0450980392157,1.15,"beaches8.jpg","beaches","X",0,"yes",0.999839,1,1.26914644241333,"j",0,1,3.5
"117",48,1,116,-12.2450980392157,1.16,"beaches8.jpg","beaches","X",0,"yes",0.999839,1,1.26914644241333,"j",0,1,3.5
"118",48,1,117,-20.9450980392157,1.17,"beaches8.jpg","beaches","X",0,"yes",0.999839,1,1.26914644241333,"j",0,1,3.5
"119",48,1,118,-4.14509803921569,1.18,"beaches8.jpg","beaches","X",0,"yes",0.999839,1,1.26914644241333,"j",0,1,3.5
"120",48,1,119,-14.5228758169935,1.19,"beaches8.jpg","beaches","X",0,"yes",0.999839,1,1.26914644241333,"j",0,1,3.5
"121",48,1,120,-13.5450980392157,1.2,"beaches8.jpg","beaches","X",0,"yes",0.999839,1,1.26914644241333,"j",0,1,3.5
"122",48,1,121,-3.04509803921569,1.21,"beaches8.jpg","beaches","X",0,"yes",0.999839,1,1.26914644241333,"j",0,1,3.5
"123",48,1,122,-3.44509803921569,1.22,"beaches8.jpg","beaches","X",0,"yes",0.999839,1,1.26914644241333,"j",0,1,3.5
"124",48,1,123,6.95490196078431,1.23,"beaches8.jpg","beaches","X",0,"yes",0.999839,1,1.26914644241333,"j",0,1,3.5
"125",48,1,124,9.55490196078431,1.24,"beaches8.jpg","beaches","X",0,"yes",0.999839,1,1.26914644241333,"j",0,1,3.5
"126",48,1,125,13.4549019607843,1.25,"beaches8.jpg","beaches","X",0,"yes",0.999839,1,1.26914644241333,"j",0,1,3.5
"127",48,1,126,11.5549019607843,1.26,"beaches8.jpg","beaches","X",0,"yes",0.999839,1,1.26914644241333,"j",0,1,3.5
"128",48,1,127,13.4549019607843,1.27,"beaches8.jpg","beaches","X",0,"yes",0.999839,1,1.26914644241333,"j",0,1,3.5
"129",48,1,128,8.25490196078431,1.28,"beaches8.jpg","beaches","X",0,"yes",0.999839,1,1.26914644241333,"j",0,1,3.5
"130",48,1,129,10.8549019607843,1.29,"beaches8.jpg","beaches","X",0,"yes",0.999839,1,1.26914644241333,"j",0,1,3.5
"131",48,1,130,6.05490196078431,1.3,"beaches8.jpg","beaches","X",0,"yes",0.999839,1,1.26914644241333,"j",0,1,3.5
"132",48,1,131,11.6549019607843,1.31,"beaches8.jpg","beaches","X",0,"yes",0.999839,1,1.26914644241333,"j",0,1,3.5
"133",48,1,132,14.6549019607843,1.32,"beaches8.jpg","beaches","X",0,"yes",0.999839,1,1.26914644241333,"j",0,1,3.5
"134",48,1,133,13.9549019607843,1.33,"beaches8.jpg","beaches","X",0,"yes",0.999839,1,1.26914644241333,"j",0,1,3.5
"135",48,1,134,19.4549019607843,1.34,"beaches8.jpg","beaches","X",0,"yes",0.999839,1,1.26914644241333,"j",0,1,3.5
"136",48,1,135,22.5549019607843,1.35,"beaches8.jpg","beaches","X",0,"yes",0.999839,1,1.26914644241333,"j",0,1,3.5
"137",48,1,136,21.4549019607843,1.36,"beaches8.jpg","beaches","X",0,"yes",0.999839,1,1.26914644241333,"j",0,1,3.5
"138",48,1,137,13.4549019607843,1.37,"beaches8.jpg","beaches","X",0,"yes",0.999839,1,1.26914644241333,"j",0,1,3.5
"139",48,1,138,22.4549019607843,1.38,"beaches8.jpg","beaches","X",0,"yes",0.999839,1,1.26914644241333,"j",0,1,3.5
"140",48,1,139,20.0549019607843,1.39,"beaches8.jpg","beaches","X",0,"yes",0.999839,1,1.26914644241333,"j",0,1,3.5
"141",48,1,140,19.5549019607843,1.4,"beaches8.jpg","beaches","X",0,"yes",0.999839,1,1.26914644241333,"j",0,1,3.5
"142",48,1,141,24.5549019607843,1.41,"beaches8.jpg","beaches","X",0,"yes",0.999839,1,1.26914644241333,"j",0,1,3.5
"143",48,1,142,25.1549019607843,1.42,"beaches8.jpg","beaches","X",0,"yes",0.999839,1,1.26914644241333,"j",0,1,3.5
"144",48,1,143,26.3549019607843,1.43,"beaches8.jpg","beaches","X",0,"yes",0.999839,1,1.26914644241333,"j",0,1,3.5
"145",48,1,144,18.4549019607843,1.44,"beaches8.jpg","beaches","X",0,"yes",0.999839,1,1.26914644241333,"j",0,1,3.5
"146",48,1,145,21.3549019607843,1.45,"beaches8.jpg","beaches","X",0,"yes",0.999839,1,1.26914644241333,"j",0,1,3.5
"147",48,1,146,30.5549019607843,1.46,"beaches8.jpg","beaches","X",0,"yes",0.999839,1,1.26914644241333,"j",0,1,3.5
"148",48,1,147,34.9549019607843,1.47,"beaches8.jpg","beaches","X",0,"yes",0.999839,1,1.26914644241333,"j",0,1,3.5
"149",48,1,148,18.4549019607843,1.48,"beaches8.jpg","beaches","X",0,"yes",0.999839,1,1.26914644241333,"j",0,1,3.5
"150",48,1,149,11.0549019607843,1.49,"beaches8.jpg","beaches","X",0,"yes",0.999839,1,1.26914644241333,"j",0,1,3.5
"151",48,1,150,24.2549019607843,1.5,"beaches8.jpg","beaches","X",0,"yes",0.999839,1,1.26914644241333,"j",0,1,3.5
"152",48,1,151,31.8549019607843,1.51,"beaches8.jpg","beaches","X",0,"yes",0.999839,1,1.26914644241333,"j",0,1,3.5
"153",48,1,152,36.7549019607843,1.52,"beaches8.jpg","beaches","X",0,"yes",0.999839,1,1.26914644241333,"j",0,1,3.5
"154",48,1,153,29.0549019607843,1.53,"beaches8.jpg","beaches","X",0,"yes",0.999839,1,1.26914644241333,"j",0,1,3.5
"155",48,1,154,53.3549019607843,1.54,"beaches8.jpg","beaches","X",0,"yes",0.999839,1,1.26914644241333,"j",0,1,3.5
"156",48,1,155,57.9549019607843,1.55,"beaches8.jpg","beaches","X",0,"yes",0.999839,1,1.26914644241333,"j",0,1,3.5
"157",48,1,156,61.5549019607843,1.56,"beaches8.jpg","beaches","X",0,"yes",0.999839,1,1.26914644241333,"j",0,1,3.5
"158",48,1,157,64.8549019607843,1.57,"beaches8.jpg","beaches","X",0,"yes",0.999839,1,1.26914644241333,"j",0,1,3.5
"159",48,1,158,57.5549019607843,1.58,"beaches8.jpg","beaches","X",0,"yes",0.999839,1,1.26914644241333,"j",0,1,3.5
"160",48,1,159,71.6549019607843,1.59,"beaches8.jpg","beaches","X",0,"yes",0.999839,1,1.26914644241333,"j",0,1,3.5
"161",48,1,160,71.7549019607843,1.6,"beaches8.jpg","beaches","X",0,"yes",0.999839,1,1.26914644241333,"j",0,1,3.5
"162",48,1,161,73.8549019607843,1.61,"beaches8.jpg","beaches","X",0,"yes",0.999839,1,1.26914644241333,"j",0,1,3.5
"163",48,1,162,71.0549019607843,1.62,"beaches8.jpg","beaches","X",0,"yes",0.999839,1,1.26914644241333,"j",0,1,3.5
"164",48,1,163,85.8549019607843,1.63,"beaches8.jpg","beaches","X",0,"yes",0.999839,1,1.26914644241333,"j",0,1,3.5
"165",48,1,164,90.8549019607843,1.64,"beaches8.jpg","beaches","X",0,"yes",0.999839,1,1.26914644241333,"j",0,1,3.5
"166",48,1,165,102.054901960784,1.65,"beaches8.jpg","beaches","X",0,"yes",0.999839,1,1.26914644241333,"j",0,1,3.5
"167",48,1,166,108.454901960784,1.66,"beaches8.jpg","beaches","X",0,"yes",0.999839,1,1.26914644241333,"j",0,1,3.5
"168",48,1,167,115.354901960784,1.67,"beaches8.jpg","beaches","X",0,"yes",0.999839,1,1.26914644241333,"j",0,1,3.5
"169",48,1,168,115.654901960784,1.68,"beaches8.jpg","beaches","X",0,"yes",0.999839,1,1.26914644241333,"j",0,1,3.5
"170",48,1,169,126.254901960784,1.69,"beaches8.jpg","beaches","X",0,"yes",0.999839,1,1.26914644241333,"j",0,1,3.5
"171",48,1,170,122.454901960784,1.7,"beaches8.jpg","beaches","X",0,"yes",0.999839,1,1.26914644241333,"j",0,1,3.5
"172",48,1,171,143.154901960784,1.71,"beaches8.jpg","beaches","X",0,"yes",0.999839,1,1.26914644241333,"j",0,1,3.5
"173",48,1,172,138.954901960784,1.72,"beaches8.jpg","beaches","X",0,"yes",0.999839,1,1.26914644241333,"j",0,1,3.5
"174",48,1,173,153.954901960784,1.73,"beaches8.jpg","beaches","X",0,"yes",0.999839,1,1.26914644241333,"j",0,1,3.5
"175",48,1,174,148.454901960784,1.74,"beaches8.jpg","beaches","X",0,"yes",0.999839,1,1.26914644241333,"j",0,1,3.5
"176",48,1,175,171.654901960784,1.75,"beaches8.jpg","beaches","X",0,"yes",0.999839,1,1.26914644241333,"j",0,1,3.5
"177",48,1,176,182.154901960784,1.76,"beaches8.jpg","beaches","X",0,"yes",0.999839,1,1.26914644241333,"j",0,1,3.5
"178",48,1,177,172.854901960784,1.77,"beaches8.jpg","beaches","X",0,"yes",0.999839,1,1.26914644241333,"j",0,1,3.5
"179",48,1,178,178.654901960784,1.78,"beaches8.jpg","beaches","X",0,"yes",0.999839,1,1.26914644241333,"j",0,1,3.5
"180",48,1,179,185.054901960784,1.79,"beaches8.jpg","beaches","X",0,"yes",0.999839,1,1.26914644241333,"j",0,1,3.5
"181",48,1,180,186.254901960784,1.8,"beaches8.jpg","beaches","X",0,"yes",0.999839,1,1.26914644241333,"j",0,1,3.5
"182",48,1,181,198.854901960784,1.81,"beaches8.jpg","beaches","X",0,"yes",0.999839,1,1.26914644241333,"j",0,1,3.5
"183",48,1,182,201.054901960784,1.82,"beaches8.jpg","beaches","X",0,"yes",0.999839,1,1.26914644241333,"j",0,1,3.5
"184",48,1,183,202.654901960784,1.83,"beaches8.jpg","beaches","X",0,"yes",0.999839,1,1.26914644241333,"j",0,1,3.5
"185",48,1,184,212.654901960784,1.84,"beaches8.jpg","beaches","X",0,"yes",0.999839,1,1.26914644241333,"j",0,1,3.5
"186",48,1,185,207.954901960784,1.85,"beaches8.jpg","beaches","X",0,"yes",0.999839,1,1.26914644241333,"j",0,1,3.5
"187",48,1,186,213.054901960784,1.86,"beaches8.jpg","beaches","X",0,"yes",0.999839,1,1.26914644241333,"j",0,1,3.5
"188",48,1,187,224.436720142602,1.87,"beaches8.jpg","beaches","X",0,"yes",0.999839,1,1.26914644241333,"j",0,1,3.5
"189",48,1,188,225.921568627451,1.88,"beaches8.jpg","beaches","X",0,"yes",0.999839,1,1.26914644241333,"j",0,1,3.5
"190",48,1,189,235.799346405229,1.89,"beaches8.jpg","beaches","X",0,"yes",0.999839,1,1.26914644241333,"j",0,1,3.5
"191",48,1,190,239.593526299409,1.9,"beaches8.jpg","beaches","X",0,"yes",0.999839,1,1.26914644241333,"j",0,1,3.5
"192",48,1,191,240.75754746343,1.91,"beaches8.jpg","beaches","X",0,"yes",0.999839,1,1.26914644241333,"j",0,1,3.5
"193",48,1,192,241.921568627451,1.92,"beaches8.jpg","beaches","X",0,"yes",0.999839,1,1.26914644241333,"j",0,1,3.5
"194",48,1,193,243.085589791472,1.93,"beaches8.jpg","beaches","X",0,"yes",0.999839,1,1.26914644241333,"j",0,1,3.5
"195",48,1,194,244.249610955493,1.94,"beaches8.jpg","beaches","X",0,"yes",0.999839,1,1.26914644241333,"j",0,1,3.5
"196",48,1,195,245.413632119514,1.95,"beaches8.jpg","beaches","X",0,"yes",0.999839,1,1.26914644241333,"j",0,1,3.5
"197",48,1,196,246.577653283536,1.96,"beaches8.jpg","beaches","X",0,"yes",0.999839,1,1.26914644241333,"j",0,1,3.5
"198",48,1,197,247.741674447557,1.97,"beaches8.jpg","beaches","X",0,"yes",0.999839,1,1.26914644241333,"j",0,1,3.5
"199",48,1,198,248.905695611578,1.98,"beaches8.jpg","beaches","X",0,"yes",0.999839,1,1.26914644241333,"j",0,1,3.5
"200",48,1,199,250.069716775599,1.99,"beaches8.jpg","beaches","X",0,"yes",0.999839,1,1.26914644241333,"j",0,1,3.5
"201",48,1,200,251.291938997821,2,"beaches8.jpg","beaches","X",0,"yes",0.999839,1,1.26914644241333,"j",0,1,3.5
"202",48,1,201,252.455960161843,2.01,"beaches8.jpg","beaches","X",0,"yes",0.999839,1,1.26914644241333,"j",0,1,3.5
"203",48,1,202,253.619981325864,2.02,"beaches8.jpg","beaches","X",0,"yes",0.999839,1,1.26914644241333,"j",0,1,3.5
"204",48,1,203,254.784002489885,2.03,"beaches8.jpg","beaches","X",0,"yes",0.999839,1,1.26914644241333,"j",0,1,3.5
"205",48,1,204,255.948023653906,2.04,"beaches8.jpg","beaches","X",0,"yes",0.999839,1,1.26914644241333,"j",0,1,3.5
"206",48,1,205,257.112044817927,2.05,"beaches8.jpg","beaches","X",0,"yes",0.999839,1,1.26914644241333,"j",0,1,3.5
"207",48,1,206,258.276065981948,2.06,"beaches8.jpg","beaches","X",0,"yes",0.999839,1,1.26914644241333,"j",0,1,3.5
"208",48,1,207,259.440087145969,2.07,"beaches8.jpg","beaches","X",0,"yes",0.999839,1,1.26914644241333,"j",0,1,3.5
"209",48,1,208,264.859519565402,2.08,"beaches8.jpg","beaches","X",0,"yes",0.999839,1,1.26914644241333,"j",0,1,3.5
"210",48,1,209,253.588235294118,2.09,"beaches8.jpg","beaches","X",0,"yes",0.999839,1,1.26914644241333,"j",0,1,3.5
"211",48,1,210,252.70944741533,2.1,"beaches8.jpg","beaches","X",0,"yes",0.999839,1,1.26914644241333,"j",0,1,3.5
"212",48,1,211,237.699346405229,2.11,"beaches8.jpg","beaches","X",0,"yes",0.999839,1,1.26914644241333,"j",0,1,3.5
"213",48,1,212,239.163992869875,2.12,"beaches8.jpg","beaches","X",0,"yes",0.999839,1,1.26914644241333,"j",0,1,3.5
"214",48,1,213,229.254901960784,2.13,"beaches8.jpg","beaches","X",0,"yes",0.999839,1,1.26914644241333,"j",0,1,3.5
"215",48,1,214,213.354901960784,2.14,"beaches8.jpg","beaches","X",0,"yes",0.999839,1,1.26914644241333,"j",0,1,3.5
"216",48,1,215,221.354901960784,2.15,"beaches8.jpg","beaches","X",0,"yes",0.999839,1,1.26914644241333,"j",0,1,3.5
"217",48,1,216,229.454901960784,2.16,"beaches8.jpg","beaches","X",0,"yes",0.999839,1,1.26914644241333,"j",0,1,3.5
"218",48,1,217,236.254901960784,2.17,"beaches8.jpg","beaches","X",0,"yes",0.999839,1,1.26914644241333,"j",0,1,3.5
"219",48,1,218,240.254901960784,2.18,"beaches8.jpg","beaches","X",0,"yes",0.999839,1,1.26914644241333,"j",0,1,3.5
"220",48,1,219,239.054901960784,2.19,"beaches8.jpg","beaches","X",0,"yes",0.999839,1,1.26914644241333,"j",0,1,3.5
"221",48,1,220,238.554901960784,2.2,"beaches8.jpg","beaches","X",0,"yes",0.999839,1,1.26914644241333,"j",0,1,3.5
"222",48,1,221,234.354901960784,2.21,"beaches8.jpg","beaches","X",0,"yes",0.999839,1,1.26914644241333,"j",0,1,3.5
"223",48,1,222,247.554901960784,2.22,"beaches8.jpg","beaches","X",0,"yes",0.999839,1,1.26914644241333,"j",0,1,3.5
"224",48,1,223,245.354901960784,2.23,"beaches8.jpg","beaches","X",0,"yes",0.999839,1,1.26914644241333,"j",0,1,3.5
"225",48,1,224,239.654901960784,2.24,"beaches8.jpg","beaches","X",0,"yes",0.999839,1,1.26914644241333,"j",0,1,3.5
"226",48,1,225,250.436720142602,2.25,"beaches8.jpg","beaches","X",0,"yes",0.999839,1,1.26914644241333,"j",0,1,3.5
"227",48,1,226,243.143790849673,2.26,"beaches8.jpg","beaches","X",0,"yes",0.999839,1,1.26914644241333,"j",0,1,3.5
"228",48,1,227,245.982174688057,2.27,"beaches8.jpg","beaches","X",0,"yes",0.999839,1,1.26914644241333,"j",0,1,3.5
"229",48,1,228,255.477124183007,2.28,"beaches8.jpg","beaches","X",0,"yes",0.999839,1,1.26914644241333,"j",0,1,3.5
"230",48,1,229,261.345811051693,2.29,"beaches8.jpg","beaches","X",0,"yes",0.999839,1,1.26914644241333,"j",0,1,3.5
"231",48,1,230,263.699346405229,2.3,"beaches8.jpg","beaches","X",0,"yes",0.999839,1,1.26914644241333,"j",0,1,3.5
"232",48,1,231,265.163992869875,2.31,"beaches8.jpg","beaches","X",0,"yes",0.999839,1,1.26914644241333,"j",0,1,3.5
"233",48,1,232,265.588235294118,2.32,"beaches8.jpg","beaches","X",0,"yes",0.999839,1,1.26914644241333,"j",0,1,3.5
"234",48,1,233,271.527629233512,2.33,"beaches8.jpg","beaches","X",0,"yes",0.999839,1,1.26914644241333,"j",0,1,3.5
"235",48,1,234,266.477124183007,2.34,"beaches8.jpg","beaches","X",0,"yes",0.999839,1,1.26914644241333,"j",0,1,3.5
"236",48,1,235,256.800356506239,2.35,"beaches8.jpg","beaches","X",0,"yes",0.999839,1,1.26914644241333,"j",0,1,3.5
"237",48,1,236,270.81045751634,2.36,"beaches8.jpg","beaches","X",0,"yes",0.999839,1,1.26914644241333,"j",0,1,3.5
"238",48,1,237,279.254901960784,2.37,"beaches8.jpg","beaches","X",0,"yes",0.999839,1,1.26914644241333,"j",0,1,3.5
"239",48,1,238,278.366013071895,2.38,"beaches8.jpg","beaches","X",0,"yes",0.999839,1,1.26914644241333,"j",0,1,3.5
"240",48,1,239,280.054901960784,2.39,"beaches8.jpg","beaches","X",0,"yes",0.999839,1,1.26914644241333,"j",0,1,3.5
"241",48,1,240,276.654901960784,2.4,"beaches8.jpg","beaches","X",0,"yes",0.999839,1,1.26914644241333,"j",0,1,3.5
"242",48,1,241,279.154901960784,2.41,"beaches8.jpg","beaches","X",0,"yes",0.999839,1,1.26914644241333,"j",0,1,3.5
"243",48,1,242,282.954901960784,2.42,"beaches8.jpg","beaches","X",0,"yes",0.999839,1,1.26914644241333,"j",0,1,3.5
"244",48,1,243,277.954901960784,2.43,"beaches8.jpg","beaches","X",0,"yes",0.999839,1,1.26914644241333,"j",0,1,3.5
"245",48,1,244,273.654901960784,2.44,"beaches8.jpg","beaches","X",0,"yes",0.999839,1,1.26914644241333,"j",0,1,3.5
"246",48,1,245,279.654901960784,2.45,"beaches8.jpg","beaches","X",0,"yes",0.999839,1,1.26914644241333,"j",0,1,3.5
"247",48,1,246,274.054901960784,2.46,"beaches8.jpg","beaches","X",0,"yes",0.999839,1,1.26914644241333,"j",0,1,3.5
"248",48,1,247,270.454901960784,2.47,"beaches8.jpg","beaches","X",0,"yes",0.999839,1,1.26914644241333,"j",0,1,3.5
"249",48,1,248,262.954901960784,2.48,"beaches8.jpg","beaches","X",0,"yes",0.999839,1,1.26914644241333,"j",0,1,3.5
"250",48,1,249,273.854901960784,2.49,"beaches8.jpg","beaches","X",0,"yes",0.999839,1,1.26914644241333,"j",0,1,3.5
"251",48,1,250,261.163992869875,2.5,"beaches8.jpg","beaches","X",0,"yes",0.999839,1,1.26914644241333,"j",0,1,3.5
"252",48,1,251,275.81045751634,2.51,"beaches8.jpg","beaches","X",0,"yes",0.999839,1,1.26914644241333,"j",0,1,3.5
"253",48,1,252,275.618538324421,2.52,"beaches8.jpg","beaches","X",0,"yes",0.999839,1,1.26914644241333,"j",0,1,3.5
"254",48,1,253,270.032679738562,2.53,"beaches8.jpg","beaches","X",0,"yes",0.999839,1,1.26914644241333,"j",0,1,3.5
"255",48,1,254,269.891265597148,2.54,"beaches8.jpg","beaches","X",0,"yes",0.999839,1,1.26914644241333,"j",0,1,3.5
"256",48,1,255,272.143790849673,2.55,"beaches8.jpg","beaches","X",0,"yes",0.999839,1,1.26914644241333,"j",0,1,3.5
"257",48,1,256,281.854901960784,2.56,"beaches8.jpg","beaches","X",0,"yes",0.999839,1,1.26914644241333,"j",0,1,3.5
"258",48,1,257,265.754901960784,2.57,"beaches8.jpg","beaches","X",0,"yes",0.999839,1,1.26914644241333,"j",0,1,3.5
"259",48,1,258,262.854901960784,2.58,"beaches8.jpg","beaches","X",0,"yes",0.999839,1,1.26914644241333,"j",0,1,3.5
"260",48,1,259,265.054901960784,2.59,"beaches8.jpg","beaches","X",0,"yes",0.999839,1,1.26914644241333,"j",0,1,3.5
"261",48,1,260,266.054901960784,2.6,"beaches8.jpg","beaches","X",0,"yes",0.999839,1,1.26914644241333,"j",0,1,3.5
"262",48,1,261,270.954901960784,2.61,"beaches8.jpg","beaches","X",0,"yes",0.999839,1,1.26914644241333,"j",0,1,3.5
"263",48,1,262,276.254901960784,2.62,"beaches8.jpg","beaches","X",0,"yes",0.999839,1,1.26914644241333,"j",0,1,3.5
"264",48,1,263,274.854901960784,2.63,"beaches8.jpg","beaches","X",0,"yes",0.999839,1,1.26914644241333,"j",0,1,3.5
"265",48,1,264,277.154901960784,2.64,"beaches8.jpg","beaches","X",0,"yes",0.999839,1,1.26914644241333,"j",0,1,3.5
"266",48,1,265,274.954901960784,2.65,"beaches8.jpg","beaches","X",0,"yes",0.999839,1,1.26914644241333,"j",0,1,3.5
"267",48,1,266,281.654901960784,2.66,"beaches8.jpg","beaches","X",0,"yes",0.999839,1,1.26914644241333,"j",0,1,3.5
"268",48,1,267,274.054901960784,2.67,"beaches8.jpg","beaches","X",0,"yes",0.999839,1,1.26914644241333,"j",0,1,3.5
"269",48,1,268,273.554901960784,2.68,"beaches8.jpg","beaches","X",0,"yes",0.999839,1,1.26914644241333,"j",0,1,3.5
"270",48,1,269,266.954901960784,2.69,"beaches8.jpg","beaches","X",0,"yes",0.999839,1,1.26914644241333,"j",0,1,3.5
"271",48,1,270,269.754901960784,2.7,"beaches8.jpg","beaches","X",0,"yes",0.999839,1,1.26914644241333,"j",0,1,3.5
"272",48,1,271,289.754901960784,2.71,"beaches8.jpg","beaches","X",0,"yes",0.999839,1,1.26914644241333,"j",0,1,3.5
"273",48,1,272,287.954901960784,2.72,"beaches8.jpg","beaches","X",0,"yes",0.999839,1,1.26914644241333,"j",0,1,3.5
"274",48,1,273,289.554901960784,2.73,"beaches8.jpg","beaches","X",0,"yes",0.999839,1,1.26914644241333,"j",0,1,3.5
"275",48,1,274,282.754901960784,2.74,"beaches8.jpg","beaches","X",0,"yes",0.999839,1,1.26914644241333,"j",0,1,3.5
"276",48,1,275,295.054901960784,2.75,"beaches8.jpg","beaches","X",0,"yes",0.999839,1,1.26914644241333,"j",0,1,3.5
"277",48,1,276,311.154901960784,2.76,"beaches8.jpg","beaches","X",0,"yes",0.999839,1,1.26914644241333,"j",0,1,3.5
"278",48,1,277,308.754901960784,2.77,"beaches8.jpg","beaches","X",0,"yes",0.999839,1,1.26914644241333,"j",0,1,3.5
"279",48,1,278,313.554901960784,2.78,"beaches8.jpg","beaches","X",0,"yes",0.999839,1,1.26914644241333,"j",0,1,3.5
"280",48,1,279,312.054901960784,2.79,"beaches8.jpg","beaches","X",0,"yes",0.999839,1,1.26914644241333,"j",0,1,3.5
"281",48,1,280,314.254901960784,2.8,"beaches8.jpg","beaches","X",0,"yes",0.999839,1,1.26914644241333,"j",0,1,3.5
"282",48,1,281,314.154901960784,2.81,"beaches8.jpg","beaches","X",0,"yes",0.999839,1,1.26914644241333,"j",0,1,3.5
"283",48,1,282,316.054901960784,2.82,"beaches8.jpg","beaches","X",0,"yes",0.999839,1,1.26914644241333,"j",0,1,3.5
"284",48,1,283,322.654901960784,2.83,"beaches8.jpg","beaches","X",0,"yes",0.999839,1,1.26914644241333,"j",0,1,3.5
"285",48,1,284,317.954901960784,2.84,"beaches8.jpg","beaches","X",0,"yes",0.999839,1,1.26914644241333,"j",0,1,3.5
"286",48,1,285,327.254901960784,2.85,"beaches8.jpg","beaches","X",0,"yes",0.999839,1,1.26914644241333,"j",0,1,3.5
"287",48,1,286,315.454901960784,2.86,"beaches8.jpg","beaches","X",0,"yes",0.999839,1,1.26914644241333,"j",0,1,3.5
"288",48,1,287,323.254901960784,2.87,"beaches8.jpg","beaches","X",0,"yes",0.999839,1,1.26914644241333,"j",0,1,3.5
"289",48,1,288,333.354901960784,2.88,"beaches8.jpg","beaches","X",0,"yes",0.999839,1,1.26914644241333,"j",0,1,3.5
"290",48,1,289,343.454901960784,2.89,"beaches8.jpg","beaches","X",0,"yes",0.999839,1,1.26914644241333,"j",0,1,3.5
"291",48,1,290,333.254901960784,2.9,"beaches8.jpg","beaches","X",0,"yes",0.999839,1,1.26914644241333,"j",0,1,3.5
"292",48,1,291,336.054901960784,2.91,"beaches8.jpg","beaches","X",0,"yes",0.999839,1,1.26914644241333,"j",0,1,3.5
"293",48,1,292,355.254901960784,2.92,"beaches8.jpg","beaches","X",0,"yes",0.999839,1,1.26914644241333,"j",0,1,3.5
"294",48,1,293,359.754901960784,2.93,"beaches8.jpg","beaches","X",0,"yes",0.999839,1,1.26914644241333,"j",0,1,3.5
"295",48,1,294,352.954901960784,2.94,"beaches8.jpg","beaches","X",0,"yes",0.999839,1,1.26914644241333,"j",0,1,3.5
"296",48,1,295,353.862966476913,2.95,"beaches8.jpg","beaches","X",0,"yes",0.999839,1,1.26914644241333,"j",0,1,3.5
"297",48,1,296,358.202482605946,2.96,"beaches8.jpg","beaches","X",0,"yes",0.999839,1,1.26914644241333,"j",0,1,3.5
"298",48,1,297,361.67022454143,2.97,"beaches8.jpg","beaches","X",0,"yes",0.999839,1,1.26914644241333,"j",0,1,3.5
"299",48,1,298,365.137966476913,2.98,"beaches8.jpg","beaches","X",0,"yes",0.999839,1,1.26914644241333,"j",0,1,3.5
"300",48,1,299,368.605708412397,2.99,"beaches8.jpg","beaches","X",0,"yes",0.999839,1,1.26914644241333,"j",0,1,3.5
"301",48,1,300,372.073450347881,3,"beaches8.jpg","beaches","X",0,"yes",0.999839,1,1.26914644241333,"j",0,1,3.5
"302",48,1,301,375.541192283365,3.01,"beaches8.jpg","beaches","X",0,"yes",0.999839,1,1.26914644241333,"j",0,1,3.5
"303",48,1,302,379.008934218849,3.02,"beaches8.jpg","beaches","X",0,"yes",0.999839,1,1.26914644241333,"j",0,1,3.5
"304",48,1,303,382.476676154333,3.03,"beaches8.jpg","beaches","X",0,"yes",0.999839,1,1.26914644241333,"j",0,1,3.5
"305",48,1,304,385.944418089817,3.04,"beaches8.jpg","beaches","X",0,"yes",0.999839,1,1.26914644241333,"j",0,1,3.5
"306",48,1,305,389.4121600253,3.05,"beaches8.jpg","beaches","X",0,"yes",0.999839,1,1.26914644241333,"j",0,1,3.5
"307",48,1,306,392.879901960784,3.06,"beaches8.jpg","beaches","X",0,"yes",0.999839,1,1.26914644241333,"j",0,1,3.5
"308",48,1,307,396.347643896268,3.07,"beaches8.jpg","beaches","X",0,"yes",0.999839,1,1.26914644241333,"j",0,1,3.5
"309",48,1,308,399.815385831752,3.08,"beaches8.jpg","beaches","X",0,"yes",0.999839,1,1.26914644241333,"j",0,1,3.5
"310",48,1,309,403.283127767236,3.09,"beaches8.jpg","beaches","X",0,"yes",0.999839,1,1.26914644241333,"j",0,1,3.5
"311",48,1,310,406.75086970272,3.1,"beaches8.jpg","beaches","X",0,"yes",0.999839,1,1.26914644241333,"j",0,1,3.5
"312",48,1,311,410.218611638204,3.11,"beaches8.jpg","beaches","X",0,"yes",0.999839,1,1.26914644241333,"j",0,1,3.5
"313",48,1,312,413.686353573688,3.12,"beaches8.jpg","beaches","X",0,"yes",0.999839,1,1.26914644241333,"j",0,1,3.5
"314",48,1,313,417.154095509171,3.13,"beaches8.jpg","beaches","X",0,"yes",0.999839,1,1.26914644241333,"j",0,1,3.5
"315",48,1,314,420.621837444655,3.14,"beaches8.jpg","beaches","X",0,"yes",0.999839,1,1.26914644241333,"j",0,1,3.5
"316",48,1,315,424.089579380139,3.15,"beaches8.jpg","beaches","X",0,"yes",0.999839,1,1.26914644241333,"j",0,1,3.5
"317",48,1,316,427.557321315623,3.16,"beaches8.jpg","beaches","X",0,"yes",0.999839,1,1.26914644241333,"j",0,1,3.5
"318",48,1,317,431.025063251107,3.17,"beaches8.jpg","beaches","X",0,"yes",0.999839,1,1.26914644241333,"j",0,1,3.5
"319",48,1,318,434.492805186591,3.18,"beaches8.jpg","beaches","X",0,"yes",0.999839,1,1.26914644241333,"j",0,1,3.5
"320",48,1,319,437.960547122075,3.19,"beaches8.jpg","beaches","X",0,"yes",0.999839,1,1.26914644241333,"j",0,1,3.5
"321",48,1,320,443.808127767236,3.2,"beaches8.jpg","beaches","X",0,"yes",0.999839,1,1.26914644241333,"j",0,1,3.5
"322",48,1,321,439.154901960784,3.21,"beaches8.jpg","beaches","X",0,"yes",0.999839,1,1.26914644241333,"j",0,1,3.5
"323",48,1,322,425.054901960784,3.22,"beaches8.jpg","beaches","X",0,"yes",0.999839,1,1.26914644241333,"j",0,1,3.5
"324",48,1,323,416.554901960784,3.23,"beaches8.jpg","beaches","X",0,"yes",0.999839,1,1.26914644241333,"j",0,1,3.5
"325",48,1,324,430.054901960784,3.24,"beaches8.jpg","beaches","X",0,"yes",0.999839,1,1.26914644241333,"j",0,1,3.5
"326",48,1,325,426.654901960784,3.25,"beaches8.jpg","beaches","X",0,"yes",0.999839,1,1.26914644241333,"j",0,1,3.5
"327",48,1,326,427.654901960784,3.26,"beaches8.jpg","beaches","X",0,"yes",0.999839,1,1.26914644241333,"j",0,1,3.5
"328",48,1,327,409.254901960784,3.27,"beaches8.jpg","beaches","X",0,"yes",0.999839,1,1.26914644241333,"j",0,1,3.5
"329",48,1,328,406.654901960784,3.28,"beaches8.jpg","beaches","X",0,"yes",0.999839,1,1.26914644241333,"j",0,1,3.5
"330",48,1,329,406.254901960784,3.29,"beaches8.jpg","beaches","X",0,"yes",0.999839,1,1.26914644241333,"j",0,1,3.5
"331",48,1,330,394.554901960784,3.3,"beaches8.jpg","beaches","X",0,"yes",0.999839,1,1.26914644241333,"j",0,1,3.5
"332",48,1,331,403.154901960784,3.31,"beaches8.jpg","beaches","X",0,"yes",0.999839,1,1.26914644241333,"j",0,1,3.5
"333",48,1,332,396.254901960784,3.32,"beaches8.jpg","beaches","X",0,"yes",0.999839,1,1.26914644241333,"j",0,1,3.5
"334",48,1,333,385.754901960784,3.33,"beaches8.jpg","beaches","X",0,"yes",0.999839,1,1.26914644241333,"j",0,1,3.5
"335",48,1,334,384.154901960784,3.34,"beaches8.jpg","beaches","X",0,"yes",0.999839,1,1.26914644241333,"j",0,1,3.5
"336",48,1,335,376.886563402791,3.35,"beaches8.jpg","beaches","X",0,"yes",0.999839,1,1.26914644241333,"j",0,1,3.5
"337",48,1,336,373.845811051693,3.36,"beaches8.jpg","beaches","X",0,"yes",0.999839,1,1.26914644241333,"j",0,1,3.5
"338",48,1,337,370.805058700596,3.37,"beaches8.jpg","beaches","X",0,"yes",0.999839,1,1.26914644241333,"j",0,1,3.5
"339",48,1,338,367.764306349499,3.38,"beaches8.jpg","beaches","X",0,"yes",0.999839,1,1.26914644241333,"j",0,1,3.5
"340",48,1,339,364.723553998402,3.39,"beaches8.jpg","beaches","X",0,"yes",0.999839,1,1.26914644241333,"j",0,1,3.5
"341",48,1,340,361.682801647305,3.4,"beaches8.jpg","beaches","X",0,"yes",0.999839,1,1.26914644241333,"j",0,1,3.5
"342",48,1,341,358.642049296208,3.41,"beaches8.jpg","beaches","X",0,"yes",0.999839,1,1.26914644241333,"j",0,1,3.5
"343",48,1,342,355.60129694511,3.42,"beaches8.jpg","beaches","X",0,"yes",0.999839,1,1.26914644241333,"j",0,1,3.5
"344",48,1,343,352.560544594013,3.43,"beaches8.jpg","beaches","X",0,"yes",0.999839,1,1.26914644241333,"j",0,1,3.5
"345",48,1,344,349.519792242916,3.44,"beaches8.jpg","beaches","X",0,"yes",0.999839,1,1.26914644241333,"j",0,1,3.5
"346",48,1,345,346.479039891819,3.45,"beaches8.jpg","beaches","X",0,"yes",0.999839,1,1.26914644241333,"j",0,1,3.5
"347",48,1,346,343.438287540722,3.46,"beaches8.jpg","beaches","X",0,"yes",0.999839,1,1.26914644241333,"j",0,1,3.5
"348",48,1,347,340.397535189624,3.47,"beaches8.jpg","beaches","X",0,"yes",0.999839,1,1.26914644241333,"j",0,1,3.5
"349",48,1,348,337.356782838527,3.48,"beaches8.jpg","beaches","X",0,"yes",0.999839,1,1.26914644241333,"j",0,1,3.5
"350",48,1,349,334.31603048743,3.49,"beaches8.jpg","beaches","X",0,"yes",0.999839,1,1.26914644241333,"j",0,1,3.5
"351",48,1,350,331.123240518778,3.5,"beaches8.jpg","beaches","X",0,"yes",0.999839,1,1.26914644241333,"j",0,1,3.5
"352",48,1,351,328.082488167681,3.51,"beaches8.jpg","beaches","X",0,"yes",0.999839,1,1.26914644241333,"j",0,1,3.5
"353",48,1,352,325.193773434139,3.52,"beaches8.jpg","beaches","X",0,"yes",0.999839,1,1.26914644241333,"j",0,1,3.5
"354",48,1,353,322.153021083041,3.53,"beaches8.jpg","beaches","X",0,"yes",0.999839,1,1.26914644241333,"j",0,1,3.5
"355",48,1,354,319.112268731944,3.54,"beaches8.jpg","beaches","X",0,"yes",0.999839,1,1.26914644241333,"j",0,1,3.5
"356",48,1,355,316.071516380847,3.55,"beaches8.jpg","beaches","X",0,"yes",0.999839,1,1.26914644241333,"j",0,1,3.5
"357",48,1,356,313.03076402975,3.56,"beaches8.jpg","beaches","X",0,"yes",0.999839,1,1.26914644241333,"j",0,1,3.5
"358",48,1,357,309.990011678653,3.57,"beaches8.jpg","beaches","X",0,"yes",0.999839,1,1.26914644241333,"j",0,1,3.5
"359",48,1,358,306.949259327555,3.58,"beaches8.jpg","beaches","X",0,"yes",0.999839,1,1.26914644241333,"j",0,1,3.5
"360",48,1,359,303.908506976458,3.59,"beaches8.jpg","beaches","X",0,"yes",0.999839,1,1.26914644241333,"j",0,1,3.5
"361",48,1,360,300.867754625361,3.6,"beaches8.jpg","beaches","X",0,"yes",0.999839,1,1.26914644241333,"j",0,1,3.5
"362",48,1,361,297.827002274264,3.61,"beaches8.jpg","beaches","X",0,"yes",0.999839,1,1.26914644241333,"j",0,1,3.5
"363",48,1,362,294.786249923167,3.62,"beaches8.jpg","beaches","X",0,"yes",0.999839,1,1.26914644241333,"j",0,1,3.5
"364",48,1,363,291.74549757207,3.63,"beaches8.jpg","beaches","X",0,"yes",0.999839,1,1.26914644241333,"j",0,1,3.5
"365",48,1,364,288.704745220972,3.64,"beaches8.jpg","beaches","X",0,"yes",0.999839,1,1.26914644241333,"j",0,1,3.5
"366",48,1,365,285.663992869875,3.65,"beaches8.jpg","beaches","X",0,"yes",0.999839,1,1.26914644241333,"j",0,1,3.5
"367",48,1,366,282.623240518778,3.66,"beaches8.jpg","beaches","X",0,"yes",0.999839,1,1.26914644241333,"j",0,1,3.5
"368",48,1,367,287.254901960784,3.67,"beaches8.jpg","beaches","X",0,"yes",0.999839,1,1.26914644241333,"j",0,1,3.5
"369",48,1,368,272.754901960784,3.68,"beaches8.jpg","beaches","X",0,"yes",0.999839,1,1.26914644241333,"j",0,1,3.5
"370",48,1,369,275.554901960784,3.69,"beaches8.jpg","beaches","X",0,"yes",0.999839,1,1.26914644241333,"j",0,1,3.5
"371",48,1,370,249.954901960784,3.7,"beaches8.jpg","beaches","X",0,"yes",0.999839,1,1.26914644241333,"j",0,1,3.5
"372",48,1,371,255.354901960784,3.71,"beaches8.jpg","beaches","X",0,"yes",0.999839,1,1.26914644241333,"j",0,1,3.5
"373",48,1,372,254.354901960784,3.72,"beaches8.jpg","beaches","X",0,"yes",0.999839,1,1.26914644241333,"j",0,1,3.5
"374",48,1,373,258.254901960784,3.73,"beaches8.jpg","beaches","X",0,"yes",0.999839,1,1.26914644241333,"j",0,1,3.5
"375",48,1,374,252.854901960784,3.74,"beaches8.jpg","beaches","X",0,"yes",0.999839,1,1.26914644241333,"j",0,1,3.5
"376",48,1,375,237.982174688057,3.75,"beaches8.jpg","beaches","X",0,"yes",0.999839,1,1.26914644241333,"j",0,1,3.5
"377",48,1,376,244.699346405229,3.76,"beaches8.jpg","beaches","X",0,"yes",0.999839,1,1.26914644241333,"j",0,1,3.5
"378",48,1,377,248.254901960784,3.77,"beaches8.jpg","beaches","X",0,"yes",0.999839,1,1.26914644241333,"j",0,1,3.5
"379",48,1,378,240.354901960784,3.78,"beaches8.jpg","beaches","X",0,"yes",0.999839,1,1.26914644241333,"j",0,1,3.5
"380",48,1,379,252.054901960784,3.79,"beaches8.jpg","beaches","X",0,"yes",0.999839,1,1.26914644241333,"j",0,1,3.5
"381",48,1,380,245.854901960784,3.8,"beaches8.jpg","beaches","X",0,"yes",0.999839,1,1.26914644241333,"j",0,1,3.5
"382",48,1,381,242.654901960784,3.81,"beaches8.jpg","beaches","X",0,"yes",0.999839,1,1.26914644241333,"j",0,1,3.5
"383",48,1,382,240.754901960784,3.82,"beaches8.jpg","beaches","X",0,"yes",0.999839,1,1.26914644241333,"j",0,1,3.5
"384",48,1,383,250.954901960784,3.83,"beaches8.jpg","beaches","X",0,"yes",0.999839,1,1.26914644241333,"j",0,1,3.5
"385",48,1,384,233.454901960784,3.84,"beaches8.jpg","beaches","X",0,"yes",0.999839,1,1.26914644241333,"j",0,1,3.5
"386",48,1,385,236.254901960784,3.85,"beaches8.jpg","beaches","X",0,"yes",0.999839,1,1.26914644241333,"j",0,1,3.5
"387",48,1,386,238.454901960784,3.86,"beaches8.jpg","beaches","X",0,"yes",0.999839,1,1.26914644241333,"j",0,1,3.5
"388",48,1,387,241.854901960784,3.87,"beaches8.jpg","beaches","X",0,"yes",0.999839,1,1.26914644241333,"j",0,1,3.5
"389",48,1,388,239.454901960784,3.88,"beaches8.jpg","beaches","X",0,"yes",0.999839,1,1.26914644241333,"j",0,1,3.5
"390",48,1,389,246.454901960784,3.89,"beaches8.jpg","beaches","X",0,"yes",0.999839,1,1.26914644241333,"j",0,1,3.5
"391",48,1,390,246.654901960784,3.9,"beaches8.jpg","beaches","X",0,"yes",0.999839,1,1.26914644241333,"j",0,1,3.5
"392",48,1,391,254.454901960784,3.91,"beaches8.jpg","beaches","X",0,"yes",0.999839,1,1.26914644241333,"j",0,1,3.5
"393",48,1,392,259.554901960784,3.92,"beaches8.jpg","beaches","X",0,"yes",0.999839,1,1.26914644241333,"j",0,1,3.5
"394",48,1,393,255.054901960784,3.93,"beaches8.jpg","beaches","X",0,"yes",0.999839,1,1.26914644241333,"j",0,1,3.5
"395",48,1,394,254.354901960784,3.94,"beaches8.jpg","beaches","X",0,"yes",0.999839,1,1.26914644241333,"j",0,1,3.5
"396",48,1,395,253.554901960784,3.95,"beaches8.jpg","beaches","X",0,"yes",0.999839,1,1.26914644241333,"j",0,1,3.5
"397",48,1,396,239.054901960784,3.96,"beaches8.jpg","beaches","X",0,"yes",0.999839,1,1.26914644241333,"j",0,1,3.5
"398",48,1,397,233.754901960784,3.97,"beaches8.jpg","beaches","X",0,"yes",0.999839,1,1.26914644241333,"j",0,1,3.5
"399",48,1,398,239.954901960784,3.98,"beaches8.jpg","beaches","X",0,"yes",0.999839,1,1.26914644241333,"j",0,1,3.5
"400",48,1,399,224.954901960784,3.99,"beaches8.jpg","beaches","X",0,"yes",0.999839,1,1.26914644241333,"j",0,1,3.5
"401",48,1,400,207.345811051693,4,"beaches8.jpg","beaches","X",0,"yes",0.999839,1,1.26914644241333,"j",0,1,3.5
"402",48,1,401,221.454901960784,4.01,"beaches8.jpg","beaches","X",0,"yes",0.999839,1,1.26914644241333,"j",0,1,3.5
"403",48,1,402,222.032679738562,4.02,"beaches8.jpg","beaches","X",0,"yes",0.999839,1,1.26914644241333,"j",0,1,3.5
"404",48,1,403,210.354901960784,4.03,"beaches8.jpg","beaches","X",0,"yes",0.999839,1,1.26914644241333,"j",0,1,3.5
"405",48,1,404,192.154901960784,4.04,"beaches8.jpg","beaches","X",0,"yes",0.999839,1,1.26914644241333,"j",0,1,3.5
"406",48,1,405,199.70944741533,4.05,"beaches8.jpg","beaches","X",0,"yes",0.999839,1,1.26914644241333,"j",0,1,3.5
"407",48,1,406,203.366013071895,4.06,"beaches8.jpg","beaches","X",0,"yes",0.999839,1,1.26914644241333,"j",0,1,3.5
"408",48,1,407,199.654901960784,4.07,"beaches8.jpg","beaches","X",0,"yes",0.999839,1,1.26914644241333,"j",0,1,3.5
"409",48,1,408,201.454901960784,4.08,"beaches8.jpg","beaches","X",0,"yes",0.999839,1,1.26914644241333,"j",0,1,3.5
"410",48,1,409,193.163992869875,4.09,"beaches8.jpg","beaches","X",0,"yes",0.999839,1,1.26914644241333,"j",0,1,3.5
"411",48,1,410,184.699346405229,4.1,"beaches8.jpg","beaches","X",0,"yes",0.999839,1,1.26914644241333,"j",0,1,3.5
"412",48,1,411,190.954901960784,4.11,"beaches8.jpg","beaches","X",0,"yes",0.999839,1,1.26914644241333,"j",0,1,3.5
"413",48,1,412,178.054901960784,4.12,"beaches8.jpg","beaches","X",0,"yes",0.999839,1,1.26914644241333,"j",0,1,3.5
"414",48,1,413,180.073083778966,4.13,"beaches8.jpg","beaches","X",0,"yes",0.999839,1,1.26914644241333,"j",0,1,3.5
"415",48,1,414,168.588235294118,4.14,"beaches8.jpg","beaches","X",0,"yes",0.999839,1,1.26914644241333,"j",0,1,3.5
"416",48,1,415,178.354901960784,4.15,"beaches8.jpg","beaches","X",0,"yes",0.999839,1,1.26914644241333,"j",0,1,3.5
"417",48,1,416,160.854901960784,4.16,"beaches8.jpg","beaches","X",0,"yes",0.999839,1,1.26914644241333,"j",0,1,3.5
"418",48,1,417,164.991371716709,4.17,"beaches8.jpg","beaches","X",0,"yes",0.999839,1,1.26914644241333,"j",0,1,3.5
"419",48,1,418,165.655680170901,4.18,"beaches8.jpg","beaches","X",0,"yes",0.999839,1,1.26914644241333,"j",0,1,3.5
"420",48,1,419,166.986419470512,4.19,"beaches8.jpg","beaches","X",0,"yes",0.999839,1,1.26914644241333,"j",0,1,3.5
"421",48,1,420,168.387197680629,4.2,"beaches8.jpg","beaches","X",0,"yes",0.999839,1,1.26914644241333,"j",0,1,3.5
"422",48,1,421,169.858014801251,4.21,"beaches8.jpg","beaches","X",0,"yes",0.999839,1,1.26914644241333,"j",0,1,3.5
"423",48,1,422,171.258793011368,4.22,"beaches8.jpg","beaches","X",0,"yes",0.999839,1,1.26914644241333,"j",0,1,3.5
"424",48,1,423,172.589532310979,4.23,"beaches8.jpg","beaches","X",0,"yes",0.999839,1,1.26914644241333,"j",0,1,3.5
"425",48,1,424,173.990310521096,4.24,"beaches8.jpg","beaches","X",0,"yes",0.999839,1,1.26914644241333,"j",0,1,3.5
"426",48,1,425,175.461127641718,4.25,"beaches8.jpg","beaches","X",0,"yes",0.999839,1,1.26914644241333,"j",0,1,3.5
"427",48,1,426,176.931944762341,4.26,"beaches8.jpg","beaches","X",0,"yes",0.999839,1,1.26914644241333,"j",0,1,3.5
"428",48,1,427,178.262684061952,4.27,"beaches8.jpg","beaches","X",0,"yes",0.999839,1,1.26914644241333,"j",0,1,3.5
"429",48,1,428,179.593423361563,4.28,"beaches8.jpg","beaches","X",0,"yes",0.999839,1,1.26914644241333,"j",0,1,3.5
"430",48,1,429,180.994201571679,4.29,"beaches8.jpg","beaches","X",0,"yes",0.999839,1,1.26914644241333,"j",0,1,3.5
"431",48,1,430,182.114824139773,4.3,"beaches8.jpg","beaches","X",0,"yes",0.999839,1,1.26914644241333,"j",0,1,3.5
"432",48,2,0,-2.8715953307393,0,"marshes7.jpg","marshes","X",0,"no",0.999983,1,0.657153606414795,"k",0,1,2
"433",48,2,1,-1.47081712062256,0.01,"marshes7.jpg","marshes","X",0,"no",0.999983,1,0.657153606414795,"k",0,1,2
"434",48,2,2,-0.070038910505832,0.02,"marshes7.jpg","marshes","X",0,"no",0.999983,1,0.657153606414795,"k",0,1,2
"435",48,2,3,1.33073929961089,0.03,"marshes7.jpg","marshes","X",0,"no",0.999983,1,0.657153606414795,"k",0,1,2
"436",48,2,4,2.73151750972762,0.04,"marshes7.jpg","marshes","X",0,"no",0.999983,1,0.657153606414795,"k",0,1,2
"437",48,2,5,4.13229571984435,0.05,"marshes7.jpg","marshes","X",0,"no",0.999983,1,0.657153606414795,"k",0,1,2
"438",48,2,6,5.5330739299611,0.06,"marshes7.jpg","marshes","X",0,"no",0.999983,1,0.657153606414795,"k",0,1,2
"439",48,2,7,6.93385214007782,0.07,"marshes7.jpg","marshes","X",0,"no",0.999983,1,0.657153606414795,"k",0,1,2
"440",48,2,8,8.04046692607003,0.08,"marshes7.jpg","marshes","X",0,"no",0.999983,1,0.657153606414795,"k",0,1,2
"441",48,2,9,5.72451361867704,0.09,"marshes7.jpg","marshes","X",0,"no",0.999983,1,0.657153606414795,"k",0,1,2
"442",48,2,10,7.32451361867704,0.1,"marshes7.jpg","marshes","X",0,"no",0.999983,1,0.657153606414795,"k",0,1,2
"443",48,2,11,-8.77548638132296,0.11,"marshes7.jpg","marshes","X",0,"no",0.999983,1,0.657153606414795,"k",0,1,2
"444",48,2,12,-13.575486381323,0.12,"marshes7.jpg","marshes","X",0,"no",0.999983,1,0.657153606414795,"k",0,1,2
"445",48,2,13,-2.57548638132296,0.13,"marshes7.jpg","marshes","X",0,"no",0.999983,1,0.657153606414795,"k",0,1,2
"446",48,2,14,-11.575486381323,0.14,"marshes7.jpg","marshes","X",0,"no",0.999983,1,0.657153606414795,"k",0,1,2
"447",48,2,15,-7.17548638132296,0.15,"marshes7.jpg","marshes","X",0,"no",0.999983,1,0.657153606414795,"k",0,1,2
"448",48,2,16,-0.875486381322958,0.16,"marshes7.jpg","marshes","X",0,"no",0.999983,1,0.657153606414795,"k",0,1,2
"449",48,2,17,-0.375486381322958,0.17,"marshes7.jpg","marshes","X",0,"no",0.999983,1,0.657153606414795,"k",0,1,2
"450",48,2,18,-6.97548638132296,0.18,"marshes7.jpg","marshes","X",0,"no",0.999983,1,0.657153606414795,"k",0,1,2
"451",48,2,19,-4.07548638132296,0.19,"marshes7.jpg","marshes","X",0,"no",0.999983,1,0.657153606414795,"k",0,1,2
"452",48,2,20,-11.075486381323,0.2,"marshes7.jpg","marshes","X",0,"no",0.999983,1,0.657153606414795,"k",0,1,2
"453",48,2,21,-3.87548638132296,0.21,"marshes7.jpg","marshes","X",0,"no",0.999983,1,0.657153606414795,"k",0,1,2
"454",48,2,22,1.12451361867704,0.22,"marshes7.jpg","marshes","X",0,"no",0.999983,1,0.657153606414795,"k",0,1,2
"455",48,2,23,-6.47548638132296,0.23,"marshes7.jpg","marshes","X",0,"no",0.999983,1,0.657153606414795,"k",0,1,2
"456",48,2,24,-3.67548638132296,0.24,"marshes7.jpg","marshes","X",0,"no",0.999983,1,0.657153606414795,"k",0,1,2
"457",48,2,25,13.924513618677,0.25,"marshes7.jpg","marshes","X",0,"no",0.999983,1,0.657153606414795,"k",0,1,2
"458",48,2,26,12.824513618677,0.26,"marshes7.jpg","marshes","X",0,"no",0.999983,1,0.657153606414795,"k",0,1,2
"459",48,2,27,-1.37548638132296,0.27,"marshes7.jpg","marshes","X",0,"no",0.999983,1,0.657153606414795,"k",0,1,2
"460",48,2,28,-0.693668199504776,0.28,"marshes7.jpg","marshes","X",0,"no",0.999983,1,0.657153606414795,"k",0,1,2
"461",48,2,29,11.6800691742326,0.29,"marshes7.jpg","marshes","X",0,"no",0.999983,1,0.657153606414795,"k",0,1,2
"462",48,2,30,16.924513618677,0.3,"marshes7.jpg","marshes","X",0,"no",0.999983,1,0.657153606414795,"k",0,1,2
"463",48,2,31,32.524513618677,0.31,"marshes7.jpg","marshes","X",0,"no",0.999983,1,0.657153606414795,"k",0,1,2
"464",48,2,32,24.324513618677,0.32,"marshes7.jpg","marshes","X",0,"no",0.999983,1,0.657153606414795,"k",0,1,2
"465",48,2,33,12.524513618677,0.33,"marshes7.jpg","marshes","X",0,"no",0.999983,1,0.657153606414795,"k",0,1,2
"466",48,2,34,9.42451361867704,0.34,"marshes7.jpg","marshes","X",0,"no",0.999983,1,0.657153606414795,"k",0,1,2
"467",48,2,35,10.124513618677,0.35,"marshes7.jpg","marshes","X",0,"no",0.999983,1,0.657153606414795,"k",0,1,2
"468",48,2,36,-1.87548638132296,0.36,"marshes7.jpg","marshes","X",0,"no",0.999983,1,0.657153606414795,"k",0,1,2
"469",48,2,37,11.224513618677,0.37,"marshes7.jpg","marshes","X",0,"no",0.999983,1,0.657153606414795,"k",0,1,2
"470",48,2,38,14.124513618677,0.38,"marshes7.jpg","marshes","X",0,"no",0.999983,1,0.657153606414795,"k",0,1,2
"471",48,2,39,-2.37548638132296,0.39,"marshes7.jpg","marshes","X",0,"no",0.999983,1,0.657153606414795,"k",0,1,2
"472",48,2,40,3.22451361867704,0.4,"marshes7.jpg","marshes","X",0,"no",0.999983,1,0.657153606414795,"k",0,1,2
"473",48,2,41,-24.475486381323,0.41,"marshes7.jpg","marshes","X",0,"no",0.999983,1,0.657153606414795,"k",0,1,2
"474",48,2,42,-40.875486381323,0.42,"marshes7.jpg","marshes","X",0,"no",0.999983,1,0.657153606414795,"k",0,1,2
"475",48,2,43,-42.275486381323,0.43,"marshes7.jpg","marshes","X",0,"no",0.999983,1,0.657153606414795,"k",0,1,2
"476",48,2,44,-32.275486381323,0.44,"marshes7.jpg","marshes","X",0,"no",0.999983,1,0.657153606414795,"k",0,1,2
"477",48,2,45,-37.575486381323,0.45,"marshes7.jpg","marshes","X",0,"no",0.999983,1,0.657153606414795,"k",0,1,2
"478",48,2,46,-40.966395472232,0.46,"marshes7.jpg","marshes","X",0,"no",0.999983,1,0.657153606414795,"k",0,1,2
"479",48,2,47,-40.9865974924341,0.47,"marshes7.jpg","marshes","X",0,"no",0.999983,1,0.657153606414795,"k",0,1,2
"480",48,2,48,-35.075486381323,0.48,"marshes7.jpg","marshes","X",0,"no",0.999983,1,0.657153606414795,"k",0,1,2
"481",48,2,49,-45.975486381323,0.49,"marshes7.jpg","marshes","X",0,"no",0.999983,1,0.657153606414795,"k",0,1,2
"482",48,2,50,-49.375486381323,0.5,"marshes7.jpg","marshes","X",0,"no",0.999983,1,0.657153606414795,"k",0,1,2
"483",48,2,51,-58.375486381323,0.51,"marshes7.jpg","marshes","X",0,"no",0.999983,1,0.657153606414795,"k",0,1,2
"484",48,2,52,-50.775486381323,0.52,"marshes7.jpg","marshes","X",0,"no",0.999983,1,0.657153606414795,"k",0,1,2
"485",48,2,53,-60.675486381323,0.53,"marshes7.jpg","marshes","X",0,"no",0.999983,1,0.657153606414795,"k",0,1,2
"486",48,2,54,-64.075486381323,0.54,"marshes7.jpg","marshes","X",0,"no",0.999983,1,0.657153606414795,"k",0,1,2
"487",48,2,55,-75.575486381323,0.55,"marshes7.jpg","marshes","X",0,"no",0.999983,1,0.657153606414795,"k",0,1,2
"488",48,2,56,-81.3300318358684,0.56,"marshes7.jpg","marshes","X",0,"no",0.999983,1,0.657153606414795,"k",0,1,2
"489",48,2,57,-79.475486381323,0.57,"marshes7.jpg","marshes","X",0,"no",0.999983,1,0.657153606414795,"k",0,1,2
"490",48,2,58,-72.075486381323,0.58,"marshes7.jpg","marshes","X",0,"no",0.999983,1,0.657153606414795,"k",0,1,2
"491",48,2,59,-73.6532641591007,0.59,"marshes7.jpg","marshes","X",0,"no",0.999983,1,0.657153606414795,"k",0,1,2
"492",48,2,60,-83.575486381323,0.6,"marshes7.jpg","marshes","X",0,"no",0.999983,1,0.657153606414795,"k",0,1,2
"493",48,2,61,-81.375486381323,0.61,"marshes7.jpg","marshes","X",0,"no",0.999983,1,0.657153606414795,"k",0,1,2
"494",48,2,62,-90.275486381323,0.62,"marshes7.jpg","marshes","X",0,"no",0.999983,1,0.657153606414795,"k",0,1,2
"495",48,2,63,-92.575486381323,0.63,"marshes7.jpg","marshes","X",0,"no",0.999983,1,0.657153606414795,"k",0,1,2
"496",48,2,64,-87.975486381323,0.64,"marshes7.jpg","marshes","X",0,"no",0.999983,1,0.657153606414795,"k",0,1,2
"497",48,2,65,-85.275486381323,0.65,"marshes7.jpg","marshes","X",0,"no",0.999983,1,0.657153606414795,"k",0,1,2
"498",48,2,66,-88.975486381323,0.66,"marshes7.jpg","marshes","X",0,"no",0.999983,1,0.657153606414795,"k",0,1,2
"499",48,2,67,-94.375486381323,0.67,"marshes7.jpg","marshes","X",0,"no",0.999983,1,0.657153606414795,"k",0,1,2
"500",48,2,68,-97.675486381323,0.68,"marshes7.jpg","marshes","X",0,"no",0.999983,1,0.657153606414795,"k",0,1,2
"501",48,2,69,-90.975486381323,0.69,"marshes7.jpg","marshes","X",0,"no",0.999983,1,0.657153606414795,"k",0,1,2
"502",48,2,70,-119.675486381323,0.7,"marshes7.jpg","marshes","X",0,"no",0.999983,1,0.657153606414795,"k",0,1,2
"503",48,2,71,-106.675486381323,0.71,"marshes7.jpg","marshes","X",0,"no",0.999983,1,0.657153606414795,"k",0,1,2
"504",48,2,72,-104.075486381323,0.72,"marshes7.jpg","marshes","X",0,"no",0.999983,1,0.657153606414795,"k",0,1,2
"505",48,2,73,-103.375486381323,0.73,"marshes7.jpg","marshes","X",0,"no",0.999983,1,0.657153606414795,"k",0,1,2
"506",48,2,74,-91.375486381323,0.74,"marshes7.jpg","marshes","X",0,"no",0.999983,1,0.657153606414795,"k",0,1,2
"507",48,2,75,-102.775486381323,0.75,"marshes7.jpg","marshes","X",0,"no",0.999983,1,0.657153606414795,"k",0,1,2
"508",48,2,76,-105.875486381323,0.76,"marshes7.jpg","marshes","X",0,"no",0.999983,1,0.657153606414795,"k",0,1,2
"509",48,2,77,-94.475486381323,0.77,"marshes7.jpg","marshes","X",0,"no",0.999983,1,0.657153606414795,"k",0,1,2
"510",48,2,78,-102.575486381323,0.78,"marshes7.jpg","marshes","X",0,"no",0.999983,1,0.657153606414795,"k",0,1,2
"511",48,2,79,-107.275486381323,0.79,"marshes7.jpg","marshes","X",0,"no",0.999983,1,0.657153606414795,"k",0,1,2
"512",48,2,80,-104.575486381323,0.8,"marshes7.jpg","marshes","X",0,"no",0.999983,1,0.657153606414795,"k",0,1,2
"513",48,2,81,-98.375486381323,0.81,"marshes7.jpg","marshes","X",0,"no",0.999983,1,0.657153606414795,"k",0,1,2
"514",48,2,82,-103.675486381323,0.82,"marshes7.jpg","marshes","X",0,"no",0.999983,1,0.657153606414795,"k",0,1,2
"515",48,2,83,-113.075486381323,0.83,"marshes7.jpg","marshes","X",0,"no",0.999983,1,0.657153606414795,"k",0,1,2
"516",48,2,84,-103.375486381323,0.84,"marshes7.jpg","marshes","X",0,"no",0.999983,1,0.657153606414795,"k",0,1,2
"517",48,2,85,-112.275486381323,0.85,"marshes7.jpg","marshes","X",0,"no",0.999983,1,0.657153606414795,"k",0,1,2
"518",48,2,86,-109.975486381323,0.86,"marshes7.jpg","marshes","X",0,"no",0.999983,1,0.657153606414795,"k",0,1,2
"519",48,2,87,-117.875486381323,0.87,"marshes7.jpg","marshes","X",0,"no",0.999983,1,0.657153606414795,"k",0,1,2
"520",48,2,88,-115.575486381323,0.88,"marshes7.jpg","marshes","X",0,"no",0.999983,1,0.657153606414795,"k",0,1,2
"521",48,2,89,-121.075486381323,0.89,"marshes7.jpg","marshes","X",0,"no",0.999983,1,0.657153606414795,"k",0,1,2
"522",48,2,90,-119.975486381323,0.9,"marshes7.jpg","marshes","X",0,"no",0.999983,1,0.657153606414795,"k",0,1,2
"523",48,2,91,-111.775486381323,0.91,"marshes7.jpg","marshes","X",0,"no",0.999983,1,0.657153606414795,"k",0,1,2
"524",48,2,92,-115.075486381323,0.92,"marshes7.jpg","marshes","X",0,"no",0.999983,1,0.657153606414795,"k",0,1,2
"525",48,2,93,-112.966395472232,0.93,"marshes7.jpg","marshes","X",0,"no",0.999983,1,0.657153606414795,"k",0,1,2
"526",48,2,94,-107.208819714656,0.94,"marshes7.jpg","marshes","X",0,"no",0.999983,1,0.657153606414795,"k",0,1,2
"527",48,2,95,-119.975486381323,0.95,"marshes7.jpg","marshes","X",0,"no",0.999983,1,0.657153606414795,"k",0,1,2
"528",48,2,96,-129.875486381323,0.96,"marshes7.jpg","marshes","X",0,"no",0.999983,1,0.657153606414795,"k",0,1,2
"529",48,2,97,-110.575486381323,0.97,"marshes7.jpg","marshes","X",0,"no",0.999983,1,0.657153606414795,"k",0,1,2
"530",48,2,98,-112.175486381323,0.98,"marshes7.jpg","marshes","X",0,"no",0.999983,1,0.657153606414795,"k",0,1,2
"531",48,2,99,-111.675486381323,0.99,"marshes7.jpg","marshes","X",0,"no",0.999983,1,0.657153606414795,"k",0,1,2
"532",48,2,100,-98.375486381323,1,"marshes7.jpg","marshes","X",0,"no",0.999983,1,0.657153606414795,"k",0,1,2
"533",48,2,101,-97.275486381323,1.01,"marshes7.jpg","marshes","X",0,"no",0.999983,1,0.657153606414795,"k",0,1,2
"534",48,2,102,-105.875486381323,1.02,"marshes7.jpg","marshes","X",0,"no",0.999983,1,0.657153606414795,"k",0,1,2
"535",48,2,103,-103.875486381323,1.03,"marshes7.jpg","marshes","X",0,"no",0.999983,1,0.657153606414795,"k",0,1,2
"536",48,2,104,-107.875486381323,1.04,"marshes7.jpg","marshes","X",0,"no",0.999983,1,0.657153606414795,"k",0,1,2
"537",48,2,105,-103.575486381323,1.05,"marshes7.jpg","marshes","X",0,"no",0.999983,1,0.657153606414795,"k",0,1,2
"538",48,2,106,-101.775486381323,1.06,"marshes7.jpg","marshes","X",0,"no",0.999983,1,0.657153606414795,"k",0,1,2
"539",48,2,107,-94.675486381323,1.07,"marshes7.jpg","marshes","X",0,"no",0.999983,1,0.657153606414795,"k",0,1,2
"540",48,2,108,-90.175486381323,1.08,"marshes7.jpg","marshes","X",0,"no",0.999983,1,0.657153606414795,"k",0,1,2
"541",48,2,109,-102.175486381323,1.09,"marshes7.jpg","marshes","X",0,"no",0.999983,1,0.657153606414795,"k",0,1,2
"542",48,2,110,-100.275486381323,1.1,"marshes7.jpg","marshes","X",0,"no",0.999983,1,0.657153606414795,"k",0,1,2
"543",48,2,111,-98.875486381323,1.11,"marshes7.jpg","marshes","X",0,"no",0.999983,1,0.657153606414795,"k",0,1,2
"544",48,2,112,-101.420940926778,1.12,"marshes7.jpg","marshes","X",0,"no",0.999983,1,0.657153606414795,"k",0,1,2
"545",48,2,113,-94.375486381323,1.13,"marshes7.jpg","marshes","X",0,"no",0.999983,1,0.657153606414795,"k",0,1,2
"546",48,2,114,-96.375486381323,1.14,"marshes7.jpg","marshes","X",0,"no",0.999983,1,0.657153606414795,"k",0,1,2
"547",48,2,115,-92.175486381323,1.15,"marshes7.jpg","marshes","X",0,"no",0.999983,1,0.657153606414795,"k",0,1,2
"548",48,2,116,-89.675486381323,1.16,"marshes7.jpg","marshes","X",0,"no",0.999983,1,0.657153606414795,"k",0,1,2
"549",48,2,117,-84.475486381323,1.17,"marshes7.jpg","marshes","X",0,"no",0.999983,1,0.657153606414795,"k",0,1,2
"550",48,2,118,-89.775486381323,1.18,"marshes7.jpg","marshes","X",0,"no",0.999983,1,0.657153606414795,"k",0,1,2
"551",48,2,119,-84.875486381323,1.19,"marshes7.jpg","marshes","X",0,"no",0.999983,1,0.657153606414795,"k",0,1,2
"552",48,2,120,-87.275486381323,1.2,"marshes7.jpg","marshes","X",0,"no",0.999983,1,0.657153606414795,"k",0,1,2
"553",48,2,121,-90.875486381323,1.21,"marshes7.jpg","marshes","X",0,"no",0.999983,1,0.657153606414795,"k",0,1,2
"554",48,2,122,-87.575486381323,1.22,"marshes7.jpg","marshes","X",0,"no",0.999983,1,0.657153606414795,"k",0,1,2
"555",48,2,123,-74.975486381323,1.23,"marshes7.jpg","marshes","X",0,"no",0.999983,1,0.657153606414795,"k",0,1,2
"556",48,2,124,-70.575486381323,1.24,"marshes7.jpg","marshes","X",0,"no",0.999983,1,0.657153606414795,"k",0,1,2
"557",48,2,125,-69.475486381323,1.25,"marshes7.jpg","marshes","X",0,"no",0.999983,1,0.657153606414795,"k",0,1,2
"558",48,2,126,-66.575486381323,1.26,"marshes7.jpg","marshes","X",0,"no",0.999983,1,0.657153606414795,"k",0,1,2
"559",48,2,127,-56.575486381323,1.27,"marshes7.jpg","marshes","X",0,"no",0.999983,1,0.657153606414795,"k",0,1,2
"560",48,2,128,-62.575486381323,1.28,"marshes7.jpg","marshes","X",0,"no",0.999983,1,0.657153606414795,"k",0,1,2
"561",48,2,129,-61.675486381323,1.29,"marshes7.jpg","marshes","X",0,"no",0.999983,1,0.657153606414795,"k",0,1,2
"562",48,2,130,-75.175486381323,1.3,"marshes7.jpg","marshes","X",0,"no",0.999983,1,0.657153606414795,"k",0,1,2
"563",48,2,131,-67.175486381323,1.31,"marshes7.jpg","marshes","X",0,"no",0.999983,1,0.657153606414795,"k",0,1,2
"564",48,2,132,-62.775486381323,1.32,"marshes7.jpg","marshes","X",0,"no",0.999983,1,0.657153606414795,"k",0,1,2
"565",48,2,133,-61.475486381323,1.33,"marshes7.jpg","marshes","X",0,"no",0.999983,1,0.657153606414795,"k",0,1,2
"566",48,2,134,-61.175486381323,1.34,"marshes7.jpg","marshes","X",0,"no",0.999983,1,0.657153606414795,"k",0,1,2
"567",48,2,135,-78.175486381323,1.35,"marshes7.jpg","marshes","X",0,"no",0.999983,1,0.657153606414795,"k",0,1,2
"568",48,2,136,-78.375486381323,1.36,"marshes7.jpg","marshes","X",0,"no",0.999983,1,0.657153606414795,"k",0,1,2
"569",48,2,137,-73.675486381323,1.37,"marshes7.jpg","marshes","X",0,"no",0.999983,1,0.657153606414795,"k",0,1,2
"570",48,2,138,-69.775486381323,1.38,"marshes7.jpg","marshes","X",0,"no",0.999983,1,0.657153606414795,"k",0,1,2
"571",48,2,139,-73.875486381323,1.39,"marshes7.jpg","marshes","X",0,"no",0.999983,1,0.657153606414795,"k",0,1,2
"572",48,2,140,-74.575486381323,1.4,"marshes7.jpg","marshes","X",0,"no",0.999983,1,0.657153606414795,"k",0,1,2
"573",48,2,141,-84.975486381323,1.41,"marshes7.jpg","marshes","X",0,"no",0.999983,1,0.657153606414795,"k",0,1,2
"574",48,2,142,-101.375486381323,1.42,"marshes7.jpg","marshes","X",0,"no",0.999983,1,0.657153606414795,"k",0,1,2
"575",48,2,143,-105.775486381323,1.43,"marshes7.jpg","marshes","X",0,"no",0.999983,1,0.657153606414795,"k",0,1,2
"576",48,2,144,-97.675486381323,1.44,"marshes7.jpg","marshes","X",0,"no",0.999983,1,0.657153606414795,"k",0,1,2
"577",48,2,145,-99.875486381323,1.45,"marshes7.jpg","marshes","X",0,"no",0.999983,1,0.657153606414795,"k",0,1,2
"578",48,2,146,-91.175486381323,1.46,"marshes7.jpg","marshes","X",0,"no",0.999983,1,0.657153606414795,"k",0,1,2
"579",48,2,147,-119.923078449312,1.47,"marshes7.jpg","marshes","X",0,"no",0.999983,1,0.657153606414795,"k",0,1,2
"580",48,2,148,-118.55395663628,1.48,"marshes7.jpg","marshes","X",0,"no",0.999983,1,0.657153606414795,"k",0,1,2
"581",48,2,149,-115.352823491805,1.49,"marshes7.jpg","marshes","X",0,"no",0.999983,1,0.657153606414795,"k",0,1,2
"582",48,2,150,-112.151690347329,1.5,"marshes7.jpg","marshes","X",0,"no",0.999983,1,0.657153606414795,"k",0,1,2
"583",48,2,151,-108.950557202853,1.51,"marshes7.jpg","marshes","X",0,"no",0.999983,1,0.657153606414795,"k",0,1,2
"584",48,2,152,-105.749424058377,1.52,"marshes7.jpg","marshes","X",0,"no",0.999983,1,0.657153606414795,"k",0,1,2
"585",48,2,153,-102.548290913901,1.53,"marshes7.jpg","marshes","X",0,"no",0.999983,1,0.657153606414795,"k",0,1,2
"586",48,2,154,-99.347157769425,1.54,"marshes7.jpg","marshes","X",0,"no",0.999983,1,0.657153606414795,"k",0,1,2
"587",48,2,155,-96.146024624949,1.55,"marshes7.jpg","marshes","X",0,"no",0.999983,1,0.657153606414795,"k",0,1,2
"588",48,2,156,-92.9448914804731,1.56,"marshes7.jpg","marshes","X",0,"no",0.999983,1,0.657153606414795,"k",0,1,2
"589",48,2,157,-89.7437583359972,1.57,"marshes7.jpg","marshes","X",0,"no",0.999983,1,0.657153606414795,"k",0,1,2
"590",48,2,158,-86.5426251915213,1.58,"marshes7.jpg","marshes","X",0,"no",0.999983,1,0.657153606414795,"k",0,1,2
"591",48,2,159,-83.3414920470453,1.59,"marshes7.jpg","marshes","X",0,"no",0.999983,1,0.657153606414795,"k",0,1,2
"592",48,2,160,-80.1403589025694,1.6,"marshes7.jpg","marshes","X",0,"no",0.999983,1,0.657153606414795,"k",0,1,2
"593",48,2,161,-76.9392257580935,1.61,"marshes7.jpg","marshes","X",0,"no",0.999983,1,0.657153606414795,"k",0,1,2
"594",48,2,162,-73.7380926136176,1.62,"marshes7.jpg","marshes","X",0,"no",0.999983,1,0.657153606414795,"k",0,1,2
"595",48,2,163,-70.5369594691417,1.63,"marshes7.jpg","marshes","X",0,"no",0.999983,1,0.657153606414795,"k",0,1,2
"596",48,2,164,-67.3358263246657,1.64,"marshes7.jpg","marshes","X",0,"no",0.999983,1,0.657153606414795,"k",0,1,2
"597",48,2,165,-64.1346931801898,1.65,"marshes7.jpg","marshes","X",0,"no",0.999983,1,0.657153606414795,"k",0,1,2
"598",48,2,166,-60.9335600357139,1.66,"marshes7.jpg","marshes","X",0,"no",0.999983,1,0.657153606414795,"k",0,1,2
"599",48,2,167,-57.732426891238,1.67,"marshes7.jpg","marshes","X",0,"no",0.999983,1,0.657153606414795,"k",0,1,2
"600",48,2,168,-54.5312937467621,1.68,"marshes7.jpg","marshes","X",0,"no",0.999983,1,0.657153606414795,"k",0,1,2
"601",48,2,169,-51.3301606022861,1.69,"marshes7.jpg","marshes","X",0,"no",0.999983,1,0.657153606414795,"k",0,1,2
"602",48,2,170,-48.1290274578102,1.7,"marshes7.jpg","marshes","X",0,"no",0.999983,1,0.657153606414795,"k",0,1,2
"603",48,2,171,-44.9278943133343,1.71,"marshes7.jpg","marshes","X",0,"no",0.999983,1,0.657153606414795,"k",0,1,2
"604",48,2,172,-41.7267611688584,1.72,"marshes7.jpg","marshes","X",0,"no",0.999983,1,0.657153606414795,"k",0,1,2
"605",48,2,173,-38.5256280243825,1.73,"marshes7.jpg","marshes","X",0,"no",0.999983,1,0.657153606414795,"k",0,1,2
"606",48,2,174,-35.3244948799065,1.74,"marshes7.jpg","marshes","X",0,"no",0.999983,1,0.657153606414795,"k",0,1,2
"607",48,2,175,-32.1233617354306,1.75,"marshes7.jpg","marshes","X",0,"no",0.999983,1,0.657153606414795,"k",0,1,2
"608",48,2,176,-28.9222285909547,1.76,"marshes7.jpg","marshes","X",0,"no",0.999983,1,0.657153606414795,"k",0,1,2
"609",48,2,177,-25.7210954464788,1.77,"marshes7.jpg","marshes","X",0,"no",0.999983,1,0.657153606414795,"k",0,1,2
"610",48,2,178,-22.5199623020029,1.78,"marshes7.jpg","marshes","X",0,"no",0.999983,1,0.657153606414795,"k",0,1,2
"611",48,2,179,-19.3188291575269,1.79,"marshes7.jpg","marshes","X",0,"no",0.999983,1,0.657153606414795,"k",0,1,2
"612",48,2,180,-16.117696013051,1.8,"marshes7.jpg","marshes","X",0,"no",0.999983,1,0.657153606414795,"k",0,1,2
"613",48,2,181,-12.9165628685751,1.81,"marshes7.jpg","marshes","X",0,"no",0.999983,1,0.657153606414795,"k",0,1,2
"614",48,2,182,-8.59559969577055,1.82,"marshes7.jpg","marshes","X",0,"no",0.999983,1,0.657153606414795,"k",0,1,2
"615",48,2,183,-9.17548638132296,1.83,"marshes7.jpg","marshes","X",0,"no",0.999983,1,0.657153606414795,"k",0,1,2
"616",48,2,184,-12.575486381323,1.84,"marshes7.jpg","marshes","X",0,"no",0.999983,1,0.657153606414795,"k",0,1,2
"617",48,2,185,-11.375486381323,1.85,"marshes7.jpg","marshes","X",0,"no",0.999983,1,0.657153606414795,"k",0,1,2
"618",48,2,186,-8.87548638132296,1.86,"marshes7.jpg","marshes","X",0,"no",0.999983,1,0.657153606414795,"k",0,1,2
"619",48,2,187,-10.966395472232,1.87,"marshes7.jpg","marshes","X",0,"no",0.999983,1,0.657153606414795,"k",0,1,2
"620",48,2,188,-4.20881971465629,1.88,"marshes7.jpg","marshes","X",0,"no",0.999983,1,0.657153606414795,"k",0,1,2
"621",48,2,189,-11.875486381323,1.89,"marshes7.jpg","marshes","X",0,"no",0.999983,1,0.657153606414795,"k",0,1,2
"622",48,2,190,-11.575486381323,1.9,"marshes7.jpg","marshes","X",0,"no",0.999983,1,0.657153606414795,"k",0,1,2
"623",48,2,191,-8.27548638132296,1.91,"marshes7.jpg","marshes","X",0,"no",0.999983,1,0.657153606414795,"k",0,1,2
"624",48,2,192,-4.77548638132296,1.92,"marshes7.jpg","marshes","X",0,"no",0.999983,1,0.657153606414795,"k",0,1,2
"625",48,2,193,11.724513618677,1.93,"marshes7.jpg","marshes","X",0,"no",0.999983,1,0.657153606414795,"k",0,1,2
"626",48,2,194,11.624513618677,1.94,"marshes7.jpg","marshes","X",0,"no",0.999983,1,0.657153606414795,"k",0,1,2
"627",48,2,195,19.0898982340617,1.95,"marshes7.jpg","marshes","X",0,"no",0.999983,1,0.657153606414795,"k",0,1,2
"628",48,2,196,17.0507956699591,1.96,"marshes7.jpg","marshes","X",0,"no",0.999983,1,0.657153606414795,"k",0,1,2
"629",48,2,197,18.1405392597027,1.97,"marshes7.jpg","marshes","X",0,"no",0.999983,1,0.657153606414795,"k",0,1,2
"630",48,2,198,19.2302828494463,1.98,"marshes7.jpg","marshes","X",0,"no",0.999983,1,0.657153606414795,"k",0,1,2
"631",48,2,199,20.3200264391899,1.99,"marshes7.jpg","marshes","X",0,"no",0.999983,1,0.657153606414795,"k",0,1,2
"632",48,2,200,21.4642572084206,2,"marshes7.jpg","marshes","X",0,"no",0.999983,1,0.657153606414795,"k",0,1,2
"633",48,2,201,22.5540007981642,2.01,"marshes7.jpg","marshes","X",0,"no",0.999983,1,0.657153606414795,"k",0,1,2
"634",48,2,202,23.6437443879078,2.02,"marshes7.jpg","marshes","X",0,"no",0.999983,1,0.657153606414795,"k",0,1,2
"635",48,2,203,24.7334879776514,2.03,"marshes7.jpg","marshes","X",0,"no",0.999983,1,0.657153606414795,"k",0,1,2
"636",48,2,204,25.823231567395,2.04,"marshes7.jpg","marshes","X",0,"no",0.999983,1,0.657153606414795,"k",0,1,2
"637",48,2,205,26.9129751571386,2.05,"marshes7.jpg","marshes","X",0,"no",0.999983,1,0.657153606414795,"k",0,1,2
"638",48,2,206,28.0027187468822,2.06,"marshes7.jpg","marshes","X",0,"no",0.999983,1,0.657153606414795,"k",0,1,2
"639",48,2,207,29.0924623366258,2.07,"marshes7.jpg","marshes","X",0,"no",0.999983,1,0.657153606414795,"k",0,1,2
"640",48,2,208,30.1822059263693,2.08,"marshes7.jpg","marshes","X",0,"no",0.999983,1,0.657153606414795,"k",0,1,2
"641",48,2,209,31.271949516113,2.09,"marshes7.jpg","marshes","X",0,"no",0.999983,1,0.657153606414795,"k",0,1,2
"642",48,2,210,32.3616931058565,2.1,"marshes7.jpg","marshes","X",0,"no",0.999983,1,0.657153606414795,"k",0,1,2
"643",48,2,211,33.4514366956001,2.11,"marshes7.jpg","marshes","X",0,"no",0.999983,1,0.657153606414795,"k",0,1,2
"644",48,2,212,34.5411802853437,2.12,"marshes7.jpg","marshes","X",0,"no",0.999983,1,0.657153606414795,"k",0,1,2
"645",48,2,213,35.6309238750873,2.13,"marshes7.jpg","marshes","X",0,"no",0.999983,1,0.657153606414795,"k",0,1,2
"646",48,2,214,36.6661802853437,2.14,"marshes7.jpg","marshes","X",0,"no",0.999983,1,0.657153606414795,"k",0,1,2
"647",48,2,215,37.7559238750873,2.15,"marshes7.jpg","marshes","X",0,"no",0.999983,1,0.657153606414795,"k",0,1,2
"648",48,2,216,38.8456674648309,2.16,"marshes7.jpg","marshes","X",0,"no",0.999983,1,0.657153606414795,"k",0,1,2
"649",48,2,217,39.9354110545745,2.17,"marshes7.jpg","marshes","X",0,"no",0.999983,1,0.657153606414795,"k",0,1,2
"650",48,2,218,41.025154644318,2.18,"marshes7.jpg","marshes","X",0,"no",0.999983,1,0.657153606414795,"k",0,1,2
"651",48,2,219,42.1148982340617,2.19,"marshes7.jpg","marshes","X",0,"no",0.999983,1,0.657153606414795,"k",0,1,2
"652",48,2,220,43.2046418238052,2.2,"marshes7.jpg","marshes","X",0,"no",0.999983,1,0.657153606414795,"k",0,1,2
"653",48,2,221,44.2943854135489,2.21,"marshes7.jpg","marshes","X",0,"no",0.999983,1,0.657153606414795,"k",0,1,2
"654",48,2,222,45.3841290032924,2.22,"marshes7.jpg","marshes","X",0,"no",0.999983,1,0.657153606414795,"k",0,1,2
"655",48,2,223,46.473872593036,2.23,"marshes7.jpg","marshes","X",0,"no",0.999983,1,0.657153606414795,"k",0,1,2
"656",48,2,224,47.5636161827796,2.24,"marshes7.jpg","marshes","X",0,"no",0.999983,1,0.657153606414795,"k",0,1,2
"657",48,2,225,48.7078469520104,2.25,"marshes7.jpg","marshes","X",0,"no",0.999983,1,0.657153606414795,"k",0,1,2
"658",48,2,226,49.2299267240901,2.26,"marshes7.jpg","marshes","X",0,"no",0.999983,1,0.657153606414795,"k",0,1,2
"659",48,2,227,61.033604527768,2.27,"marshes7.jpg","marshes","X",0,"no",0.999983,1,0.657153606414795,"k",0,1,2
"660",48,2,228,54.5689580631215,2.28,"marshes7.jpg","marshes","X",0,"no",0.999983,1,0.657153606414795,"k",0,1,2
"661",48,2,229,43.6699681641316,2.29,"marshes7.jpg","marshes","X",0,"no",0.999983,1,0.657153606414795,"k",0,1,2
"662",48,2,230,35.6800691742326,2.3,"marshes7.jpg","marshes","X",0,"no",0.999983,1,0.657153606414795,"k",0,1,2
"663",48,2,231,31.3972408914043,2.31,"marshes7.jpg","marshes","X",0,"no",0.999983,1,0.657153606414795,"k",0,1,2
"664",48,2,232,25.0134025075659,2.32,"marshes7.jpg","marshes","X",0,"no",0.999983,1,0.657153606414795,"k",0,1,2
"665",48,2,233,20.033604527768,2.33,"marshes7.jpg","marshes","X",0,"no",0.999983,1,0.657153606414795,"k",0,1,2
"666",48,2,234,17.9022913964548,2.34,"marshes7.jpg","marshes","X",0,"no",0.999983,1,0.657153606414795,"k",0,1,2
"667",48,2,235,17.5790590732225,2.35,"marshes7.jpg","marshes","X",0,"no",0.999983,1,0.657153606414795,"k",0,1,2
"668",48,2,236,4.12451361867704,2.36,"marshes7.jpg","marshes","X",0,"no",0.999983,1,0.657153606414795,"k",0,1,2
"669",48,2,237,10.9426954368589,2.37,"marshes7.jpg","marshes","X",0,"no",0.999983,1,0.657153606414795,"k",0,1,2
"670",48,2,238,11.0134025075659,2.38,"marshes7.jpg","marshes","X",0,"no",0.999983,1,0.657153606414795,"k",0,1,2
"671",48,2,239,-2.77548638132296,2.39,"marshes7.jpg","marshes","X",0,"no",0.999983,1,0.657153606414795,"k",0,1,2
"672",48,2,240,0.124513618677042,2.4,"marshes7.jpg","marshes","X",0,"no",0.999983,1,0.657153606414795,"k",0,1,2
"673",48,2,241,-0.575486381322958,2.41,"marshes7.jpg","marshes","X",0,"no",0.999983,1,0.657153606414795,"k",0,1,2
"674",48,2,242,11.724513618677,2.42,"marshes7.jpg","marshes","X",0,"no",0.999983,1,0.657153606414795,"k",0,1,2
"675",48,2,243,-1.17548638132296,2.43,"marshes7.jpg","marshes","X",0,"no",0.999983,1,0.657153606414795,"k",0,1,2
"676",48,2,244,7.62451361867704,2.44,"marshes7.jpg","marshes","X",0,"no",0.999983,1,0.657153606414795,"k",0,1,2
"677",48,2,245,10.224513618677,2.45,"marshes7.jpg","marshes","X",0,"no",0.999983,1,0.657153606414795,"k",0,1,2
"678",48,2,246,-0.375486381322958,2.46,"marshes7.jpg","marshes","X",0,"no",0.999983,1,0.657153606414795,"k",0,1,2
"679",48,2,247,8.42451361867704,2.47,"marshes7.jpg","marshes","X",0,"no",0.999983,1,0.657153606414795,"k",0,1,2
"680",48,2,248,-0.875486381322958,2.48,"marshes7.jpg","marshes","X",0,"no",0.999983,1,0.657153606414795,"k",0,1,2
"681",48,2,249,18.724513618677,2.49,"marshes7.jpg","marshes","X",0,"no",0.999983,1,0.657153606414795,"k",0,1,2
"682",48,2,250,13.9426954368589,2.5,"marshes7.jpg","marshes","X",0,"no",0.999983,1,0.657153606414795,"k",0,1,2
"683",48,2,251,4.12451361867704,2.51,"marshes7.jpg","marshes","X",0,"no",0.999983,1,0.657153606414795,"k",0,1,2
"684",48,2,252,22.8517863459498,2.52,"marshes7.jpg","marshes","X",0,"no",0.999983,1,0.657153606414795,"k",0,1,2
"685",48,2,253,20.2356247297882,2.53,"marshes7.jpg","marshes","X",0,"no",0.999983,1,0.657153606414795,"k",0,1,2
"686",48,2,254,19.5790590732225,2.54,"marshes7.jpg","marshes","X",0,"no",0.999983,1,0.657153606414795,"k",0,1,2
"687",48,2,255,13.2356247297882,2.55,"marshes7.jpg","marshes","X",0,"no",0.999983,1,0.657153606414795,"k",0,1,2
"688",48,2,256,14.924513618677,2.56,"marshes7.jpg","marshes","X",0,"no",0.999983,1,0.657153606414795,"k",0,1,2
"689",48,2,257,21.224513618677,2.57,"marshes7.jpg","marshes","X",0,"no",0.999983,1,0.657153606414795,"k",0,1,2
"690",48,2,258,20.324513618677,2.58,"marshes7.jpg","marshes","X",0,"no",0.999983,1,0.657153606414795,"k",0,1,2
"691",48,2,259,14.124513618677,2.59,"marshes7.jpg","marshes","X",0,"no",0.999983,1,0.657153606414795,"k",0,1,2
"692",48,2,260,0.424513618677043,2.6,"marshes7.jpg","marshes","X",0,"no",0.999983,1,0.657153606414795,"k",0,1,2
"693",48,2,261,4.52451361867704,2.61,"marshes7.jpg","marshes","X",0,"no",0.999983,1,0.657153606414795,"k",0,1,2
"694",48,2,262,-10.375486381323,2.62,"marshes7.jpg","marshes","X",0,"no",0.999983,1,0.657153606414795,"k",0,1,2
"695",48,2,263,15.524513618677,2.63,"marshes7.jpg","marshes","X",0,"no",0.999983,1,0.657153606414795,"k",0,1,2
"696",48,2,264,0.924513618677042,2.64,"marshes7.jpg","marshes","X",0,"no",0.999983,1,0.657153606414795,"k",0,1,2
"697",48,2,265,-8.17548638132296,2.65,"marshes7.jpg","marshes","X",0,"no",0.999983,1,0.657153606414795,"k",0,1,2
"698",48,2,266,-13.275486381323,2.66,"marshes7.jpg","marshes","X",0,"no",0.999983,1,0.657153606414795,"k",0,1,2
"699",48,2,267,-14.675486381323,2.67,"marshes7.jpg","marshes","X",0,"no",0.999983,1,0.657153606414795,"k",0,1,2
"700",48,2,268,-8.27548638132296,2.68,"marshes7.jpg","marshes","X",0,"no",0.999983,1,0.657153606414795,"k",0,1,2
"701",48,2,269,-24.475486381323,2.69,"marshes7.jpg","marshes","X",0,"no",0.999983,1,0.657153606414795,"k",0,1,2
"702",48,2,270,-16.875486381323,2.7,"marshes7.jpg","marshes","X",0,"no",0.999983,1,0.657153606414795,"k",0,1,2
"703",48,2,271,-14.675486381323,2.71,"marshes7.jpg","marshes","X",0,"no",0.999983,1,0.657153606414795,"k",0,1,2
"704",48,2,272,-18.575486381323,2.72,"marshes7.jpg","marshes","X",0,"no",0.999983,1,0.657153606414795,"k",0,1,2
"705",48,2,273,-12.475486381323,2.73,"marshes7.jpg","marshes","X",0,"no",0.999983,1,0.657153606414795,"k",0,1,2
"706",48,2,274,-25.375486381323,2.74,"marshes7.jpg","marshes","X",0,"no",0.999983,1,0.657153606414795,"k",0,1,2
"707",48,2,275,-28.275486381323,2.75,"marshes7.jpg","marshes","X",0,"no",0.999983,1,0.657153606414795,"k",0,1,2
"708",48,2,276,-43.975486381323,2.76,"marshes7.jpg","marshes","X",0,"no",0.999983,1,0.657153606414795,"k",0,1,2
"709",48,2,277,-43.575486381323,2.77,"marshes7.jpg","marshes","X",0,"no",0.999983,1,0.657153606414795,"k",0,1,2
"710",48,2,278,-44.175486381323,2.78,"marshes7.jpg","marshes","X",0,"no",0.999983,1,0.657153606414795,"k",0,1,2
"711",48,2,279,-44.275486381323,2.79,"marshes7.jpg","marshes","X",0,"no",0.999983,1,0.657153606414795,"k",0,1,2
"712",48,2,280,-47.375486381323,2.8,"marshes7.jpg","marshes","X",0,"no",0.999983,1,0.657153606414795,"k",0,1,2
"713",48,2,281,-32.075486381323,2.81,"marshes7.jpg","marshes","X",0,"no",0.999983,1,0.657153606414795,"k",0,1,2
"714",48,2,282,-39.475486381323,2.82,"marshes7.jpg","marshes","X",0,"no",0.999983,1,0.657153606414795,"k",0,1,2
"715",48,2,283,-47.439316168557,2.83,"marshes7.jpg","marshes","X",0,"no",0.999983,1,0.657153606414795,"k",0,1,2
"716",48,2,284,-46.4818693600464,2.84,"marshes7.jpg","marshes","X",0,"no",0.999983,1,0.657153606414795,"k",0,1,2
"717",48,2,285,-44.5669757430251,2.85,"marshes7.jpg","marshes","X",0,"no",0.999983,1,0.657153606414795,"k",0,1,2
"718",48,2,286,-42.6520821260038,2.86,"marshes7.jpg","marshes","X",0,"no",0.999983,1,0.657153606414795,"k",0,1,2
"719",48,2,287,-40.7371885089825,2.87,"marshes7.jpg","marshes","X",0,"no",0.999983,1,0.657153606414795,"k",0,1,2
"720",48,2,288,-38.8222948919613,2.88,"marshes7.jpg","marshes","X",0,"no",0.999983,1,0.657153606414795,"k",0,1,2
"721",48,2,289,-36.90740127494,2.89,"marshes7.jpg","marshes","X",0,"no",0.999983,1,0.657153606414795,"k",0,1,2
"722",48,2,290,-34.9925076579187,2.9,"marshes7.jpg","marshes","X",0,"no",0.999983,1,0.657153606414795,"k",0,1,2
"723",48,2,291,-33.0776140408974,2.91,"marshes7.jpg","marshes","X",0,"no",0.999983,1,0.657153606414795,"k",0,1,2
"724",48,2,292,-31.1627204238762,2.92,"marshes7.jpg","marshes","X",0,"no",0.999983,1,0.657153606414795,"k",0,1,2
"725",48,2,293,-29.2478268068549,2.93,"marshes7.jpg","marshes","X",0,"no",0.999983,1,0.657153606414795,"k",0,1,2
"726",48,2,294,-27.3329331898336,2.94,"marshes7.jpg","marshes","X",0,"no",0.999983,1,0.657153606414795,"k",0,1,2
"727",48,2,295,-25.7052736153655,2.95,"marshes7.jpg","marshes","X",0,"no",0.999983,1,0.657153606414795,"k",0,1,2
"728",48,3,0,-3.92553191489365,0,"forests53.jpg","forests","A",0,"no",1.000014,1,0.632558584213257,"k",0,1,3.5
"729",48,3,1,-2.01063829787236,0.01,"forests53.jpg","forests","A",0,"no",1.000014,1,0.632558584213257,"k",0,1,3.5
"730",48,3,2,-0.0957446808510894,0.02,"forests53.jpg","forests","A",0,"no",1.000014,1,0.632558584213257,"k",0,1,3.5
"731",48,3,3,1.8191489361702,0.03,"forests53.jpg","forests","A",0,"no",1.000014,1,0.632558584213257,"k",0,1,3.5
"732",48,3,4,3.73404255319147,0.04,"forests53.jpg","forests","A",0,"no",1.000014,1,0.632558584213257,"k",0,1,3.5
"733",48,3,5,5.64893617021275,0.05,"forests53.jpg","forests","A",0,"no",1.000014,1,0.632558584213257,"k",0,1,3.5
"734",48,3,6,7.56382978723402,0.06,"forests53.jpg","forests","A",0,"no",1.000014,1,0.632558584213257,"k",0,1,3.5
"735",48,3,7,9.47872340425531,0.07,"forests53.jpg","forests","A",0,"no",1.000014,1,0.632558584213257,"k",0,1,3.5
"736",48,3,8,11.3936170212766,0.08,"forests53.jpg","forests","A",0,"no",1.000014,1,0.632558584213257,"k",0,1,3.5
"737",48,3,9,13.3085106382979,0.09,"forests53.jpg","forests","A",0,"no",1.000014,1,0.632558584213257,"k",0,1,3.5
"738",48,3,10,15.2234042553191,0.1,"forests53.jpg","forests","A",0,"no",1.000014,1,0.632558584213257,"k",0,1,3.5
"739",48,3,11,17.1382978723404,0.11,"forests53.jpg","forests","A",0,"no",1.000014,1,0.632558584213257,"k",0,1,3.5
"740",48,3,12,19.0531914893617,0.12,"forests53.jpg","forests","A",0,"no",1.000014,1,0.632558584213257,"k",0,1,3.5
"741",48,3,13,20.968085106383,0.13,"forests53.jpg","forests","A",0,"no",1.000014,1,0.632558584213257,"k",0,1,3.5
"742",48,3,14,22.8829787234042,0.14,"forests53.jpg","forests","A",0,"no",1.000014,1,0.632558584213257,"k",0,1,3.5
"743",48,3,15,24.7978723404255,0.15,"forests53.jpg","forests","A",0,"no",1.000014,1,0.632558584213257,"k",0,1,3.5
"744",48,3,16,26.7127659574468,0.16,"forests53.jpg","forests","A",0,"no",1.000014,1,0.632558584213257,"k",0,1,3.5
"745",48,3,17,28.6276595744681,0.17,"forests53.jpg","forests","A",0,"no",1.000014,1,0.632558584213257,"k",0,1,3.5
"746",48,3,18,30.5425531914893,0.18,"forests53.jpg","forests","A",0,"no",1.000014,1,0.632558584213257,"k",0,1,3.5
"747",48,3,19,35.9702127659574,0.19,"forests53.jpg","forests","A",0,"no",1.000014,1,0.632558584213257,"k",0,1,3.5
"748",48,3,20,36.1617021276596,0.2,"forests53.jpg","forests","A",0,"no",1.000014,1,0.632558584213257,"k",0,1,3.5
"749",48,3,21,39.7617021276596,0.21,"forests53.jpg","forests","A",0,"no",1.000014,1,0.632558584213257,"k",0,1,3.5
"750",48,3,22,31.1617021276596,0.22,"forests53.jpg","forests","A",0,"no",1.000014,1,0.632558584213257,"k",0,1,3.5
"751",48,3,23,25.8617021276596,0.23,"forests53.jpg","forests","A",0,"no",1.000014,1,0.632558584213257,"k",0,1,3.5
"752",48,3,24,35.0617021276596,0.24,"forests53.jpg","forests","A",0,"no",1.000014,1,0.632558584213257,"k",0,1,3.5
"753",48,3,25,32.8617021276596,0.25,"forests53.jpg","forests","A",0,"no",1.000014,1,0.632558584213257,"k",0,1,3.5
"754",48,3,26,39.2617021276596,0.26,"forests53.jpg","forests","A",0,"no",1.000014,1,0.632558584213257,"k",0,1,3.5
"755",48,3,27,41.3617021276596,0.27,"forests53.jpg","forests","A",0,"no",1.000014,1,0.632558584213257,"k",0,1,3.5
"756",48,3,28,43.1798839458414,0.28,"forests53.jpg","forests","A",0,"no",1.000014,1,0.632558584213257,"k",0,1,3.5
"757",48,3,29,46.0283687943262,0.29,"forests53.jpg","forests","A",0,"no",1.000014,1,0.632558584213257,"k",0,1,3.5
"758",48,3,30,50.3617021276596,0.3,"forests53.jpg","forests","A",0,"no",1.000014,1,0.632558584213257,"k",0,1,3.5
"759",48,3,31,48.8617021276596,0.31,"forests53.jpg","forests","A",0,"no",1.000014,1,0.632558584213257,"k",0,1,3.5
"760",48,3,32,51.5617021276596,0.32,"forests53.jpg","forests","A",0,"no",1.000014,1,0.632558584213257,"k",0,1,3.5
"761",48,3,33,60.6617021276596,0.33,"forests53.jpg","forests","A",0,"no",1.000014,1,0.632558584213257,"k",0,1,3.5
"762",48,3,34,56.0617021276596,0.34,"forests53.jpg","forests","A",0,"no",1.000014,1,0.632558584213257,"k",0,1,3.5
"763",48,3,35,57.9617021276596,0.35,"forests53.jpg","forests","A",0,"no",1.000014,1,0.632558584213257,"k",0,1,3.5
"764",48,3,36,70.7617021276596,0.36,"forests53.jpg","forests","A",0,"no",1.000014,1,0.632558584213257,"k",0,1,3.5
"765",48,3,37,79.2617021276596,0.37,"forests53.jpg","forests","A",0,"no",1.000014,1,0.632558584213257,"k",0,1,3.5
"766",48,3,38,66.8617021276596,0.38,"forests53.jpg","forests","A",0,"no",1.000014,1,0.632558584213257,"k",0,1,3.5
"767",48,3,39,85.2617021276596,0.39,"forests53.jpg","forests","A",0,"no",1.000014,1,0.632558584213257,"k",0,1,3.5
"768",48,3,40,87.0617021276596,0.4,"forests53.jpg","forests","A",0,"no",1.000014,1,0.632558584213257,"k",0,1,3.5
"769",48,3,41,94.6617021276596,0.41,"forests53.jpg","forests","A",0,"no",1.000014,1,0.632558584213257,"k",0,1,3.5
"770",48,3,42,89.8617021276596,0.42,"forests53.jpg","forests","A",0,"no",1.000014,1,0.632558584213257,"k",0,1,3.5
"771",48,3,43,93.3617021276596,0.43,"forests53.jpg","forests","A",0,"no",1.000014,1,0.632558584213257,"k",0,1,3.5
"772",48,3,44,104.86170212766,0.44,"forests53.jpg","forests","A",0,"no",1.000014,1,0.632558584213257,"k",0,1,3.5
"773",48,3,45,105.86170212766,0.45,"forests53.jpg","forests","A",0,"no",1.000014,1,0.632558584213257,"k",0,1,3.5
"774",48,3,46,100.27079303675,0.46,"forests53.jpg","forests","A",0,"no",1.000014,1,0.632558584213257,"k",0,1,3.5
"775",48,3,47,98.2505910165484,0.47,"forests53.jpg","forests","A",0,"no",1.000014,1,0.632558584213257,"k",0,1,3.5
"776",48,3,48,104.96170212766,0.48,"forests53.jpg","forests","A",0,"no",1.000014,1,0.632558584213257,"k",0,1,3.5
"777",48,3,49,105.16170212766,0.49,"forests53.jpg","forests","A",0,"no",1.000014,1,0.632558584213257,"k",0,1,3.5
"778",48,3,50,95.9617021276595,0.5,"forests53.jpg","forests","A",0,"no",1.000014,1,0.632558584213257,"k",0,1,3.5
"779",48,3,51,96.2617021276596,0.51,"forests53.jpg","forests","A",0,"no",1.000014,1,0.632558584213257,"k",0,1,3.5
"780",48,3,52,87.4617021276595,0.52,"forests53.jpg","forests","A",0,"no",1.000014,1,0.632558584213257,"k",0,1,3.5
"781",48,3,53,94.2617021276596,0.53,"forests53.jpg","forests","A",0,"no",1.000014,1,0.632558584213257,"k",0,1,3.5
"782",48,3,54,85.4617021276595,0.54,"forests53.jpg","forests","A",0,"no",1.000014,1,0.632558584213257,"k",0,1,3.5
"783",48,3,55,66.3617021276596,0.55,"forests53.jpg","forests","A",0,"no",1.000014,1,0.632558584213257,"k",0,1,3.5
"784",48,3,56,67.816247582205,0.56,"forests53.jpg","forests","A",0,"no",1.000014,1,0.632558584213257,"k",0,1,3.5
"785",48,3,57,68.4617021276595,0.57,"forests53.jpg","forests","A",0,"no",1.000014,1,0.632558584213257,"k",0,1,3.5
"786",48,3,58,57.1617021276596,0.58,"forests53.jpg","forests","A",0,"no",1.000014,1,0.632558584213257,"k",0,1,3.5
"787",48,3,59,57.4728132387707,0.59,"forests53.jpg","forests","A",0,"no",1.000014,1,0.632558584213257,"k",0,1,3.5
"788",48,3,60,49.3617021276596,0.6,"forests53.jpg","forests","A",0,"no",1.000014,1,0.632558584213257,"k",0,1,3.5
"789",48,3,61,30.4617021276596,0.61,"forests53.jpg","forests","A",0,"no",1.000014,1,0.632558584213257,"k",0,1,3.5
"790",48,3,62,29.0617021276596,0.62,"forests53.jpg","forests","A",0,"no",1.000014,1,0.632558584213257,"k",0,1,3.5
"791",48,3,63,27.9617021276596,0.63,"forests53.jpg","forests","A",0,"no",1.000014,1,0.632558584213257,"k",0,1,3.5
"792",48,3,64,28.1617021276596,0.64,"forests53.jpg","forests","A",0,"no",1.000014,1,0.632558584213257,"k",0,1,3.5
"793",48,3,65,30.6617021276596,0.65,"forests53.jpg","forests","A",0,"no",1.000014,1,0.632558584213257,"k",0,1,3.5
"794",48,3,66,29.1617021276596,0.66,"forests53.jpg","forests","A",0,"no",1.000014,1,0.632558584213257,"k",0,1,3.5
"795",48,3,67,38.4617021276596,0.67,"forests53.jpg","forests","A",0,"no",1.000014,1,0.632558584213257,"k",0,1,3.5
"796",48,3,68,29.5617021276596,0.68,"forests53.jpg","forests","A",0,"no",1.000014,1,0.632558584213257,"k",0,1,3.5
"797",48,3,69,24.9617021276596,0.69,"forests53.jpg","forests","A",0,"no",1.000014,1,0.632558584213257,"k",0,1,3.5
"798",48,3,70,21.4617021276596,0.7,"forests53.jpg","forests","A",0,"no",1.000014,1,0.632558584213257,"k",0,1,3.5
"799",48,3,71,30.6617021276596,0.71,"forests53.jpg","forests","A",0,"no",1.000014,1,0.632558584213257,"k",0,1,3.5
"800",48,3,72,17.8617021276596,0.72,"forests53.jpg","forests","A",0,"no",1.000014,1,0.632558584213257,"k",0,1,3.5
"801",48,3,73,25.8617021276596,0.73,"forests53.jpg","forests","A",0,"no",1.000014,1,0.632558584213257,"k",0,1,3.5
"802",48,3,74,18.1617021276596,0.74,"forests53.jpg","forests","A",0,"no",1.000014,1,0.632558584213257,"k",0,1,3.5
"803",48,3,75,16.4617021276596,0.75,"forests53.jpg","forests","A",0,"no",1.000014,1,0.632558584213257,"k",0,1,3.5
"804",48,3,76,11.8617021276596,0.76,"forests53.jpg","forests","A",0,"no",1.000014,1,0.632558584213257,"k",0,1,3.5
"805",48,3,77,6.66170212765955,0.77,"forests53.jpg","forests","A",0,"no",1.000014,1,0.632558584213257,"k",0,1,3.5
"806",48,3,78,16.8617021276596,0.78,"forests53.jpg","forests","A",0,"no",1.000014,1,0.632558584213257,"k",0,1,3.5
"807",48,3,79,14.8617021276596,0.79,"forests53.jpg","forests","A",0,"no",1.000014,1,0.632558584213257,"k",0,1,3.5
"808",48,3,80,19.0617021276596,0.8,"forests53.jpg","forests","A",0,"no",1.000014,1,0.632558584213257,"k",0,1,3.5
"809",48,3,81,7.56170212765956,0.81,"forests53.jpg","forests","A",0,"no",1.000014,1,0.632558584213257,"k",0,1,3.5
"810",48,3,82,9.46170212765955,0.82,"forests53.jpg","forests","A",0,"no",1.000014,1,0.632558584213257,"k",0,1,3.5
"811",48,3,83,11.2617021276596,0.83,"forests53.jpg","forests","A",0,"no",1.000014,1,0.632558584213257,"k",0,1,3.5
"812",48,3,84,-8.53829787234045,0.84,"forests53.jpg","forests","A",0,"no",1.000014,1,0.632558584213257,"k",0,1,3.5
"813",48,3,85,-3.13829787234044,0.85,"forests53.jpg","forests","A",0,"no",1.000014,1,0.632558584213257,"k",0,1,3.5
"814",48,3,86,-4.53829787234045,0.86,"forests53.jpg","forests","A",0,"no",1.000014,1,0.632558584213257,"k",0,1,3.5
"815",48,3,87,-6.33829787234045,0.87,"forests53.jpg","forests","A",0,"no",1.000014,1,0.632558584213257,"k",0,1,3.5
"816",48,3,88,-18.8382978723404,0.88,"forests53.jpg","forests","A",0,"no",1.000014,1,0.632558584213257,"k",0,1,3.5
"817",48,3,89,-24.6382978723404,0.89,"forests53.jpg","forests","A",0,"no",1.000014,1,0.632558584213257,"k",0,1,3.5
"818",48,3,90,-17.1382978723404,0.9,"forests53.jpg","forests","A",0,"no",1.000014,1,0.632558584213257,"k",0,1,3.5
"819",48,3,91,-8.53829787234045,0.91,"forests53.jpg","forests","A",0,"no",1.000014,1,0.632558584213257,"k",0,1,3.5
"820",48,3,92,-12.1382978723404,0.92,"forests53.jpg","forests","A",0,"no",1.000014,1,0.632558584213257,"k",0,1,3.5
"821",48,3,93,-16.2746615087041,0.93,"forests53.jpg","forests","A",0,"no",1.000014,1,0.632558584213257,"k",0,1,3.5
"822",48,3,94,-26.7494089834516,0.94,"forests53.jpg","forests","A",0,"no",1.000014,1,0.632558584213257,"k",0,1,3.5
"823",48,3,95,-23.8382978723404,0.95,"forests53.jpg","forests","A",0,"no",1.000014,1,0.632558584213257,"k",0,1,3.5
"824",48,3,96,-32.4382978723404,0.96,"forests53.jpg","forests","A",0,"no",1.000014,1,0.632558584213257,"k",0,1,3.5
"825",48,3,97,-43.1382978723404,0.97,"forests53.jpg","forests","A",0,"no",1.000014,1,0.632558584213257,"k",0,1,3.5
"826",48,3,98,-38.0382978723404,0.98,"forests53.jpg","forests","A",0,"no",1.000014,1,0.632558584213257,"k",0,1,3.5
"827",48,3,99,-33.4382978723404,0.99,"forests53.jpg","forests","A",0,"no",1.000014,1,0.632558584213257,"k",0,1,3.5
"828",48,3,100,-24.1382978723404,1,"forests53.jpg","forests","A",0,"no",1.000014,1,0.632558584213257,"k",0,1,3.5
"829",48,3,101,-32.9382978723404,1.01,"forests53.jpg","forests","A",0,"no",1.000014,1,0.632558584213257,"k",0,1,3.5
"830",48,3,102,-25.1382978723404,1.02,"forests53.jpg","forests","A",0,"no",1.000014,1,0.632558584213257,"k",0,1,3.5
"831",48,3,103,-26.0382978723404,1.03,"forests53.jpg","forests","A",0,"no",1.000014,1,0.632558584213257,"k",0,1,3.5
"832",48,3,104,-37.1382978723404,1.04,"forests53.jpg","forests","A",0,"no",1.000014,1,0.632558584213257,"k",0,1,3.5
"833",48,3,105,-31.8382978723404,1.05,"forests53.jpg","forests","A",0,"no",1.000014,1,0.632558584213257,"k",0,1,3.5
"834",48,3,106,-25.7382978723404,1.06,"forests53.jpg","forests","A",0,"no",1.000014,1,0.632558584213257,"k",0,1,3.5
"835",48,3,107,-26.7382978723404,1.07,"forests53.jpg","forests","A",0,"no",1.000014,1,0.632558584213257,"k",0,1,3.5
"836",48,3,108,-20.6382978723404,1.08,"forests53.jpg","forests","A",0,"no",1.000014,1,0.632558584213257,"k",0,1,3.5
"837",48,3,109,-20.0382978723404,1.09,"forests53.jpg","forests","A",0,"no",1.000014,1,0.632558584213257,"k",0,1,3.5
"838",48,3,110,-27.1382978723404,1.1,"forests53.jpg","forests","A",0,"no",1.000014,1,0.632558584213257,"k",0,1,3.5
"839",48,3,111,-17.8382978723404,1.11,"forests53.jpg","forests","A",0,"no",1.000014,1,0.632558584213257,"k",0,1,3.5
"840",48,3,112,-9.45647969052226,1.12,"forests53.jpg","forests","A",0,"no",1.000014,1,0.632558584213257,"k",0,1,3.5
"841",48,3,113,-9.83829787234044,1.13,"forests53.jpg","forests","A",0,"no",1.000014,1,0.632558584213257,"k",0,1,3.5
"842",48,3,114,-13.8382978723404,1.14,"forests53.jpg","forests","A",0,"no",1.000014,1,0.632558584213257,"k",0,1,3.5
"843",48,3,115,-14.7382978723404,1.15,"forests53.jpg","forests","A",0,"no",1.000014,1,0.632558584213257,"k",0,1,3.5
"844",48,3,116,-11.4382978723404,1.16,"forests53.jpg","forests","A",0,"no",1.000014,1,0.632558584213257,"k",0,1,3.5
"845",48,3,117,1.96170212765956,1.17,"forests53.jpg","forests","A",0,"no",1.000014,1,0.632558584213257,"k",0,1,3.5
"846",48,3,118,-4.93829787234044,1.18,"forests53.jpg","forests","A",0,"no",1.000014,1,0.632558584213257,"k",0,1,3.5
"847",48,3,119,1.36170212765956,1.19,"forests53.jpg","forests","A",0,"no",1.000014,1,0.632558584213257,"k",0,1,3.5
"848",48,3,120,15.4617021276596,1.2,"forests53.jpg","forests","A",0,"no",1.000014,1,0.632558584213257,"k",0,1,3.5
"849",48,3,121,29.0617021276596,1.21,"forests53.jpg","forests","A",0,"no",1.000014,1,0.632558584213257,"k",0,1,3.5
"850",48,3,122,39.3617021276596,1.22,"forests53.jpg","forests","A",0,"no",1.000014,1,0.632558584213257,"k",0,1,3.5
"851",48,3,123,23.0617021276596,1.23,"forests53.jpg","forests","A",0,"no",1.000014,1,0.632558584213257,"k",0,1,3.5
"852",48,3,124,34.6617021276596,1.24,"forests53.jpg","forests","A",0,"no",1.000014,1,0.632558584213257,"k",0,1,3.5
"853",48,3,125,40.4617021276596,1.25,"forests53.jpg","forests","A",0,"no",1.000014,1,0.632558584213257,"k",0,1,3.5
"854",48,3,126,62.2617021276596,1.26,"forests53.jpg","forests","A",0,"no",1.000014,1,0.632558584213257,"k",0,1,3.5
"855",48,3,127,72.0617021276596,1.27,"forests53.jpg","forests","A",0,"no",1.000014,1,0.632558584213257,"k",0,1,3.5
"856",48,3,128,81.0617021276596,1.28,"forests53.jpg","forests","A",0,"no",1.000014,1,0.632558584213257,"k",0,1,3.5
"857",48,3,129,81.7617021276596,1.29,"forests53.jpg","forests","A",0,"no",1.000014,1,0.632558584213257,"k",0,1,3.5
"858",48,3,130,88.3617021276596,1.3,"forests53.jpg","forests","A",0,"no",1.000014,1,0.632558584213257,"k",0,1,3.5
"859",48,3,131,86.9617021276595,1.31,"forests53.jpg","forests","A",0,"no",1.000014,1,0.632558584213257,"k",0,1,3.5
"860",48,3,132,92.6617021276596,1.32,"forests53.jpg","forests","A",0,"no",1.000014,1,0.632558584213257,"k",0,1,3.5
"861",48,3,133,91.1617021276596,1.33,"forests53.jpg","forests","A",0,"no",1.000014,1,0.632558584213257,"k",0,1,3.5
"862",48,3,134,88.0617021276596,1.34,"forests53.jpg","forests","A",0,"no",1.000014,1,0.632558584213257,"k",0,1,3.5
"863",48,3,135,91.3617021276596,1.35,"forests53.jpg","forests","A",0,"no",1.000014,1,0.632558584213257,"k",0,1,3.5
"864",48,3,136,92.4617021276595,1.36,"forests53.jpg","forests","A",0,"no",1.000014,1,0.632558584213257,"k",0,1,3.5
"865",48,3,137,85.6617021276596,1.37,"forests53.jpg","forests","A",0,"no",1.000014,1,0.632558584213257,"k",0,1,3.5
"866",48,3,138,74.6617021276596,1.38,"forests53.jpg","forests","A",0,"no",1.000014,1,0.632558584213257,"k",0,1,3.5
"867",48,3,139,76.7617021276596,1.39,"forests53.jpg","forests","A",0,"no",1.000014,1,0.632558584213257,"k",0,1,3.5
"868",48,3,140,82.2617021276596,1.4,"forests53.jpg","forests","A",0,"no",1.000014,1,0.632558584213257,"k",0,1,3.5
"869",48,3,141,65.0617021276596,1.41,"forests53.jpg","forests","A",0,"no",1.000014,1,0.632558584213257,"k",0,1,3.5
"870",48,3,142,76.1617021276596,1.42,"forests53.jpg","forests","A",0,"no",1.000014,1,0.632558584213257,"k",0,1,3.5
"871",48,3,143,82.5617021276596,1.43,"forests53.jpg","forests","A",0,"no",1.000014,1,0.632558584213257,"k",0,1,3.5
"872",48,3,144,76.9803687943262,1.44,"forests53.jpg","forests","A",0,"no",1.000014,1,0.632558584213257,"k",0,1,3.5
"873",48,3,145,76.8283687943262,1.45,"forests53.jpg","forests","A",0,"no",1.000014,1,0.632558584213257,"k",0,1,3.5
"874",48,3,146,77.4505910165484,1.46,"forests53.jpg","forests","A",0,"no",1.000014,1,0.632558584213257,"k",0,1,3.5
"875",48,3,147,78.0728132387707,1.47,"forests53.jpg","forests","A",0,"no",1.000014,1,0.632558584213257,"k",0,1,3.5
"876",48,3,148,78.6950354609929,1.48,"forests53.jpg","forests","A",0,"no",1.000014,1,0.632558584213257,"k",0,1,3.5
"877",48,3,149,79.3172576832151,1.49,"forests53.jpg","forests","A",0,"no",1.000014,1,0.632558584213257,"k",0,1,3.5
"878",48,3,150,79.9394799054373,1.5,"forests53.jpg","forests","A",0,"no",1.000014,1,0.632558584213257,"k",0,1,3.5
"879",48,3,151,80.5617021276596,1.51,"forests53.jpg","forests","A",0,"no",1.000014,1,0.632558584213257,"k",0,1,3.5
"880",48,3,152,81.1839243498818,1.52,"forests53.jpg","forests","A",0,"no",1.000014,1,0.632558584213257,"k",0,1,3.5
"881",48,3,153,81.806146572104,1.53,"forests53.jpg","forests","A",0,"no",1.000014,1,0.632558584213257,"k",0,1,3.5
"882",48,3,154,82.4283687943262,1.54,"forests53.jpg","forests","A",0,"no",1.000014,1,0.632558584213257,"k",0,1,3.5
